aX,aY,aZ,gX,gY,gZ
-0.467,2.027,1.947,-73.608,-101.196,256.714
-0.589,2.445,1.886,27.527,-14.587,226.624
-0.956,3.378,1.535,45.715,1.282,198.547
-1.139,3.651,1.502,-71.716,-31.860,58.289
-1.145,3.323,1.901,-166.504,-62.622,-40.833
-0.878,2.367,2.555,-283.813,-84.167,-189.697
-0.752,2.035,2.361,-207.336,15.503,-248.840
-0.648,1.847,1.453,-150.146,54.260,-270.264
-0.676,1.602,1.317,-128.540,54.138,-324.646
-0.685,0.795,1.498,-145.691,49.927,-331.726
-0.596,0.542,1.467,-131.897,87.158,-292.969
-0.395,0.240,1.022,-102.905,113.281,-275.330
-0.318,0.080,0.687,-68.787,146.545,-260.681
-0.148,-0.161,0.223,-79.407,139.160,-253.662
-0.073,-0.239,0.303,-92.346,104.126,-244.080
-0.057,-0.515,0.091,-57.251,109.497,-242.126
-0.046,-0.584,-0.130,-8.240,94.055,-212.769
-0.005,-0.530,0.229,-22.705,60.120,-187.439
0.054,-0.513,0.426,-13.672,44.739,-140.076
0.113,-0.508,0.137,0.122,57.312,-120.911
0.109,-0.500,-0.066,-2.197,45.471,-88.989
0.088,-0.372,-0.249,2.563,27.710,-72.571
0.064,-0.240,-0.285,41.138,2.686,-47.180
-0.042,-0.081,-0.280,47.913,-4.883,-44.189
-0.096,-0.056,-0.311,41.260,-5.493,-43.091
-0.187,-0.060,-0.525,45.105,-4.272,-39.185
-0.221,-0.090,-0.627,55.847,-26.123,-25.940
-0.265,-0.135,-0.612,60.608,-47.668,-18.860
-0.276,-0.137,-0.635,92.346,-71.716,-2.075
-0.200,-0.255,-0.784,91.187,-86.792,2.441
-0.174,-0.378,-0.684,25.635,-145.020,12.573
-0.237,-0.383,-0.387,10.376,-162.048,26.489
-0.306,-0.304,-0.344,29.297,-174.683,54.504
-0.389,-0.006,-0.173,45.227,-188.843,65.918
-0.339,0.161,-0.111,106.934,-208.435,64.331
-0.204,0.207,-0.021,135.315,-218.140,49.622
-0.215,0.108,0.186,142.700,-250.488,27.527
-0.258,0.298,0.686,151.855,-257.385,30.029
-0.222,0.494,0.804,193.909,-248.657,10.193
-0.011,0.382,1.097,201.599,-249.207,-19.043
0.071,0.072,1.429,162.842,-260.803,-57.861
0.161,-0.218,2.510,124.634,-264.282,-48.645
0.143,-0.040,2.958,128.906,-219.727,-14.465
0.185,0.312,3.344,162.781,-185.547,-11.047
0.262,0.201,3.529,152.771,-163.025,-10.376
0.426,0.621,3.706,45.715,-112.915,30.151
0.511,0.982,3.527,32.166,-67.444,31.677
0.559,1.014,3.215,77.148,15.503,-46.021
0.577,0.533,2.745,82.764,32.166,-66.406
0.583,0.507,2.583,49.866,55.359,-45.227
0.534,0.565,2.179,29.846,67.261,-38.696
0.468,0.467,1.980,1.892,80.200,-40.466
0.325,0.282,1.575,-6.042,83.984,-36.621
0.287,0.213,1.346,-19.104,86.243,-25.696
0.269,0.120,1.050,-28.076,80.078,-21.362
0.261,0.082,0.995,-34.424,72.144,-18.188
0.219,0.091,0.940,-33.752,62.195,-10.132
0.212,0.115,0.850,-26.123,62.744,-6.836
0.220,0.084,0.745,-25.940,58.105,-9.827
0.272,-0.078,0.724,-36.621,49.133,-10.742
0.295,-0.154,0.775,-48.035,41.016,-2.869
0.324,-0.167,0.760,-42.053,43.457,5.737
0.346,-0.105,0.734,-34.119,39.551,20.081
0.446,-0.049,0.788,-37.720,32.959,21.667
0.513,-0.099,0.886,-41.016,22.888,22.034
0.560,-0.148,1.140,-38.879,24.048,27.466
0.541,-0.096,1.251,-33.569,36.377,37.537
0.538,-0.212,1.262,-29.114,46.753,35.706
0.566,-0.364,1.188,-13.000,60.608,41.992
0.592,-0.537,1.120,-9.155,60.547,54.199
0.540,-0.541,1.177,-32.288,56.519,83.374
0.417,-0.532,1.248,-41.931,60.852,94.788
0.391,-0.513,1.119,-39.185,79.163,117.798
0.319,-0.481,0.875,-42.480,79.468,127.869
0.248,-0.475,0.823,-38.452,75.623,148.132
0.090,-0.377,0.577,-31.799,75.867,159.973
0.028,-0.237,0.515,-27.954,59.814,182.373
-0.156,0.192,0.584,-28.442,52.551,189.636
-0.251,0.454,0.574,-28.198,49.011,191.040
-0.361,0.853,0.437,-30.762,47.791,182.190
-0.382,0.953,0.377,-13.916,41.809,156.677
-0.411,1.133,0.360,2.380,37.476,145.386
-0.415,1.241,0.340,13.306,34.546,133.362
-0.373,1.329,0.242,13.245,29.541,97.778
-0.335,1.309,0.294,5.249,20.264,78.308
-0.287,1.260,0.444,-5.615,2.136,43.396
-0.204,1.030,0.607,-1.526,7.019,28.625
-0.174,0.946,0.561,12.939,17.944,15.808
-0.089,0.880,0.632,17.822,12.817,11.169
-0.028,0.834,0.717,31.738,5.554,-1.343
0.099,0.742,0.804,30.090,5.127,-7.324
0.151,0.638,0.840,6.653,1.831,-19.714
0.220,0.462,0.887,4.944,2.258,-19.531
0.250,0.456,0.869,10.071,4.272,-15.564
0.303,0.443,0.898,15.137,3.296,-10.742
0.324,0.427,0.906,16.418,4.395,-9.399
0.339,0.426,0.884,20.081,10.437,-4.150
0.342,0.424,0.818,17.578,10.376,-2.258
0.337,0.444,0.815,11.963,4.211,2.014
0.348,0.471,0.895,11.414,2.136,2.686
0.358,0.466,0.903,14.221,8.911,4.089
0.362,0.482,0.829,11.963,12.024,5.249
0.361,0.488,0.816,-6.897,8.484,4.700
0.341,0.465,0.823,-14.343,7.019,3.906
0.335,0.456,0.797,-22.583,6.836,5.493
0.357,0.476,0.802,-31.067,4.456,7.263
0.374,0.480,0.820,-26.855,5.066,7.385
0.361,0.503,0.805,-12.695,8.118,7.385
0.352,0.491,0.807,4.150,9.094,5.249
0.332,0.433,0.780,7.507,9.705,6.165
0.330,0.442,0.737,8.240,7.874,12.329
0.345,0.453,0.760,8.362,2.502,13.550
0.348,0.410,0.791,19.226,-2.991,15.503
0.299,0.518,0.776,32.104,-2.075,21.667
0.286,0.684,0.796,38.818,-2.869,24.292
0.296,0.726,0.895,17.273,-5.554,-16.052
0.300,0.531,0.896,-9.277,-1.099,-45.105
0.325,0.212,0.798,-39.612,11.230,-46.021
0.333,0.246,0.744,-20.264,14.038,5.554
-0.153,1.467,1.508,-0.305,-63.293,29.419
-0.276,1.785,2.214,-24.780,-51.208,10.803
-0.327,1.995,2.325,-33.447,-27.893,0.122
-0.387,2.394,2.499,-96.436,-7.812,-32.837
-0.403,2.351,2.725,-161.682,-13.184,-95.337
-0.452,2.120,2.995,-158.569,4.639,-117.004
-0.449,1.962,2.795,-127.808,66.711,-155.518
-0.406,1.357,2.089,-134.155,83.008,-173.950
-0.375,1.062,1.754,-158.936,84.900,-183.594
-0.253,0.712,1.061,-158.752,83.557,-181.824
-0.174,0.444,0.685,-159.485,74.707,-189.636
-0.098,-0.023,0.261,-159.302,65.369,-184.937
-0.095,-0.072,0.089,-137.390,49.927,-161.438
-0.148,-0.109,-0.010,-130.676,32.776,-153.503
-0.138,-0.175,0.125,-98.267,11.475,-144.287
-0.089,-0.408,-0.087,-67.078,21.301,-137.451
-0.050,-0.438,-0.340,-22.400,11.841,-113.342
-0.044,-0.486,-0.031,-16.357,-30.945,-94.604
-0.092,-0.349,0.414,-5.737,-21.179,-79.041
-0.112,-0.173,0.304,8.972,11.658,-62.683
-0.074,-0.079,0.088,5.310,10.803,-66.040
-0.006,-0.138,0.036,12.329,-0.977,-65.186
0.045,-0.123,0.002,24.292,-7.019,-48.584
0.043,0.072,0.010,46.204,-7.141,-25.696
0.045,0.148,-0.188,53.589,-0.732,-31.128
0.066,0.082,-0.373,54.016,-5.005,-35.889
0.088,-0.034,-0.461,44.189,-20.935,-33.386
0.055,-0.075,-0.379,41.626,-43.640,-21.973
-0.014,-0.064,-0.360,44.922,-47.913,-15.564
-0.032,-0.029,-0.368,40.833,-63.782,-9.216
-0.056,0.061,-0.348,39.978,-72.998,-8.911
-0.051,0.095,-0.307,49.744,-95.581,-11.902
-0.008,0.066,-0.083,60.364,-105.835,-13.733
-0.018,0.063,0.024,93.201,-114.075,-10.193
-0.016,0.201,0.230,114.868,-115.356,-8.301
-0.009,0.274,0.228,136.353,-118.042,-14.404
0.039,0.379,0.363,135.315,-128.418,-21.484
0.134,0.375,0.621,141.174,-147.034,-34.607
0.356,0.506,1.113,146.362,-144.958,-36.133
0.410,0.654,1.334,145.142,-134.521,-45.044
0.482,0.731,1.772,140.076,-125.610,-56.885
0.523,0.624,2.010,143.860,-103.271,-75.500
0.631,0.486,2.424,153.381,-85.815,-76.843
0.662,0.399,2.468,152.649,-66.040,-78.979
0.638,-0.002,3.124,77.637,-68.176,-88.989
0.644,-0.049,3.469,46.143,-62.256,-80.994
0.705,0.113,2.921,70.190,25.574,-55.725
0.740,0.051,2.540,67.749,55.237,-54.138
0.767,-0.046,2.322,31.860,67.932,-44.617
0.787,-0.069,1.962,24.292,74.036,-33.142
0.767,-0.082,1.779,12.207,78.918,-12.878
0.653,0.009,1.437,5.310,77.087,-1.465
0.571,0.139,1.280,-13.733,66.467,13.855
0.419,0.268,1.221,-30.884,59.387,13.000
0.383,0.248,1.133,-46.875,66.895,7.996
0.381,0.212,0.745,-43.457,69.397,6.897
0.395,0.212,0.684,-41.199,54.260,3.845
0.450,0.151,0.631,-40.588,48.401,0.793
0.490,0.077,0.626,-42.297,36.499,-3.967
0.589,-0.108,0.670,-41.077,33.569,-5.432
0.661,-0.281,0.631,-20.569,33.569,-7.385
0.838,-0.735,0.653,-5.066,31.067,-3.540
0.906,-1.079,0.693,-2.441,25.208,10.559
0.909,-1.781,1.009,-18.066,20.325,28.137
0.873,-2.009,1.164,-31.799,35.400,82.336
0.713,-2.251,0.906,-20.264,53.833,116.821
0.542,-2.094,0.659,-9.705,66.345,205.261
-0.052,-0.884,0.446,-8.972,59.998,250.305
-0.385,-0.031,0.452,3.296,38.391,294.617
-0.824,1.305,0.495,6.775,28.381,285.645
-0.948,1.815,0.428,12.817,18.616,245.361
-1.000,2.734,0.519,14.038,8.423,215.210
-0.935,2.866,0.684,13.184,-0.427,171.997
-0.727,2.549,0.831,20.630,2.930,79.468
-0.603,2.231,0.867,22.949,7.690,41.077
-0.480,1.850,0.888,24.963,21.484,-15.625
-0.235,1.059,0.731,28.198,28.381,-32.898
-0.107,0.710,0.703,27.527,16.296,-48.950
0.137,0.229,0.862,24.353,8.423,-48.950
0.231,0.097,0.870,26.855,9.644,-39.795
0.410,0.008,0.755,30.396,10.437,-33.875
0.481,-0.029,0.724,27.222,3.906,-22.949
0.516,-0.014,0.757,22.766,-0.427,-14.587
0.504,0.043,0.798,15.930,-7.874,0.671
0.467,0.163,0.898,14.526,-8.606,5.066
0.453,0.203,0.906,14.648,-2.319,10.864
0.420,0.322,0.857,12.390,-1.221,14.587
0.401,0.405,0.849,7.935,-3.357,17.395
0.351,0.471,0.901,-6.348,-12.817,13.977
0.334,0.455,0.967,-11.292,-16.846,10.559
0.348,0.444,1.016,-5.676,-11.963,8.362
0.370,0.426,0.948,1.343,-3.906,7.080
0.388,0.396,0.870,9.644,3.235,2.625
0.415,0.373,0.807,10.132,2.380,1.282
0.427,0.340,0.785,2.808,1.282,-2.319
0.426,0.265,0.804,1.160,-0.916,-1.892
0.417,0.271,0.842,2.563,-2.075,3.418
0.388,0.315,0.880,3.479,-0.122,5.188
0.376,0.339,0.882,6.714,5.127,6.836
0.365,0.383,0.862,4.211,6.714,6.836
0.364,0.385,0.870,-1.099,7.629,3.296
0.347,0.344,0.869,3.113,9.827,2.319
0.343,0.366,0.856,12.085,11.780,4.761
0.364,0.410,0.867,12.207,11.108,3.784
0.376,0.400,0.858,7.874,12.329,0.671
0.379,0.396,0.816,3.967,12.329,0.244
0.373,0.392,0.816,0.183,8.606,-0.549
0.381,0.403,0.850,2.014,7.751,-0.366
0.390,0.388,0.831,4.272,8.667,-1.831
0.385,0.355,0.833,1.648,5.737,-1.343
0.380,0.377,0.891,-6.104,1.038,-0.488
0.384,0.363,0.895,-4.944,4.639,-1.282
0.387,0.388,0.851,-0.366,8.911,0.916
0.402,0.404,0.865,-3.601,7.019,-0.977
0.408,0.368,0.887,-7.385,6.409,-3.479
0.425,0.391,0.862,-3.052,11.353,-0.671
0.441,0.412,0.842,0.244,13.367,0.732
0.455,0.416,0.840,0.305,11.902,-0.366
0.469,0.442,0.865,-2.075,10.437,-2.197
-0.011,1.401,1.729,-6.958,-58.777,42.847
-0.080,1.603,2.034,-72.815,-33.508,5.981
-0.060,1.944,2.108,-79.529,-4.517,-20.691
-0.008,1.907,1.893,-75.500,32.471,-84.167
0.021,1.782,1.936,-88.257,23.682,-102.966
0.011,1.800,2.171,-126.587,21.667,-127.441
-0.026,1.625,2.216,-137.817,42.480,-143.127
-0.059,1.554,2.006,-130.432,87.402,-163.269
-0.133,1.235,1.393,-118.896,101.440,-176.208
-0.109,0.929,1.003,-88.196,105.713,-196.411
0.021,0.356,0.636,-82.764,90.454,-194.092
0.042,0.172,0.697,-84.412,71.594,-168.152
0.013,-0.007,0.532,-86.731,82.031,-154.175
0.012,-0.110,0.278,-74.768,98.267,-138.123
0.015,-0.265,-0.230,-53.589,88.684,-130.859
0.016,-0.342,-0.381,-10.803,46.509,-115.967
0.004,-0.506,-0.502,6.836,24.414,-105.530
-0.011,-0.476,-0.415,34.302,-23.987,-70.801
-0.030,-0.235,-0.074,41.077,-37.659,-52.551
-0.036,-0.171,-0.061,45.532,-21.545,-30.090
-0.115,-0.087,-0.125,44.495,-15.198,-23.315
-0.143,-0.007,-0.108,59.753,-18.372,-14.832
-0.050,0.167,-0.126,68.542,-20.447,-16.541
0.020,0.202,-0.173,35.461,-27.039,-36.621
0.145,0.206,-0.245,21.851,-33.020,-41.992
0.165,0.337,-0.308,52.795,-37.903,-25.208
0.085,0.658,-0.519,78.247,-43.213,-22.766
0.007,0.714,-0.413,49.561,-93.750,-43.213
-0.120,0.558,0.131,29.358,-113.281,-56.519
-0.162,0.438,0.198,79.956,-98.389,-71.228
-0.199,0.230,-0.055,106.750,-94.177,-75.256
-0.165,0.109,-0.097,71.411,-129.517,-84.167
-0.014,-0.282,-0.062,51.208,-150.574,-84.839
0.054,-0.425,0.002,52.734,-186.523,-55.298
-0.053,-0.170,0.361,70.435,-202.393,-33.264
-0.125,0.019,0.596,114.197,-216.064,-28.442
-0.075,-0.112,0.766,122.986,-212.769,-40.283
-0.022,-0.240,0.819,101.196,-220.520,-37.598
0.077,-0.236,1.495,77.148,-233.887,-29.785
0.120,-0.257,2.017,68.115,-224.121,-20.142
0.112,0.027,2.661,87.402,-193.542,-10.498
0.084,0.197,2.797,100.159,-131.714,-12.573
0.037,0.429,3.168,87.463,-112.366,-20.813
0.050,0.537,3.463,72.998,-94.971,-30.579
0.139,0.370,3.408,66.833,-20.996,-60.059
0.192,0.144,3.027,75.928,23.132,-71.350
0.250,-0.143,2.735,72.571,52.673,-69.946
0.264,-0.211,2.718,49.316,75.317,-56.763
0.303,-0.278,2.149,39.551,95.459,-49.744
0.333,-0.299,1.868,25.818,103.699,-43.030
0.372,-0.278,1.470,-6.226,97.778,-28.381
0.381,-0.274,1.276,-15.320,94.727,-21.667
0.380,-0.338,1.156,-23.437,80.872,-10.742
0.369,-0.372,1.147,-29.663,76.782,-5.493
0.365,-0.367,0.911,-36.255,81.726,4.944
0.382,-0.379,0.833,-43.457,72.388,9.399
0.450,-0.584,0.831,-48.950,67.505,9.583
0.497,-0.805,0.775,-35.767,71.045,15.808
0.569,-1.305,0.573,-27.893,72.510,26.245
0.562,-1.588,0.468,-26.428,71.350,40.222
0.484,-1.966,0.250,-27.039,60.852,85.815
0.402,-1.908,0.290,-30.701,48.096,119.568
0.115,-1.301,0.515,-52.734,32.654,190.613
-0.068,-0.848,0.365,-41.199,45.776,240.723
-0.358,0.119,0.228,-44.006,32.654,251.099
-0.478,0.551,0.362,-37.048,4.822,252.624
-0.635,1.617,0.530,-26.245,1.038,247.864
-0.664,2.170,0.594,-26.001,-3.296,231.567
-0.576,2.565,0.954,-42.175,-14.771,152.893
-0.505,2.408,1.020,-13.855,14.832,77.332
-0.401,2.110,0.811,7.935,27.161,54.871
-0.336,1.899,0.856,19.043,20.081,6.104
-0.157,1.142,0.890,16.663,23.010,-17.212
-0.080,0.761,0.759,13.000,28.076,-37.048
0.042,0.169,0.777,8.911,18.433,-38.269
0.109,-0.046,0.869,17.212,9.460,-25.879
0.244,-0.094,0.831,21.851,10.925,-13.794
0.295,-0.076,0.801,9.399,5.310,-1.831
0.350,-0.070,0.841,3.784,2.625,2.502
0.355,-0.023,0.846,0.183,2.502,13.428
0.345,0.124,0.853,-2.869,1.282,17.578
0.345,0.195,0.869,-8.362,-1.892,20.569
0.342,0.305,0.895,-8.301,-2.747,20.508
0.338,0.360,0.948,-8.728,-3.906,19.531
0.317,0.413,1.001,-7.629,-0.122,18.066
0.297,0.475,0.925,-5.615,6.470,15.686
0.303,0.449,0.941,-10.742,4.700,12.390
0.297,0.332,0.875,-9.460,8.240,8.362
0.289,0.375,0.802,0.610,10.437,11.108
0.305,0.313,0.877,-6.958,0.732,7.874
0.315,0.242,0.912,-7.019,3.845,12.085
0.293,0.351,0.783,4.028,7.690,18.433
0.289,0.448,0.734,2.380,-0.854,16.113
0.313,0.309,0.854,-12.207,-8.728,9.827
0.314,0.256,0.920,-12.878,-7.202,16.479
0.274,0.418,0.917,-7.263,-3.113,22.217
0.260,0.511,0.909,-17.578,-2.014,19.104
0.257,0.463,0.976,-24.353,-2.136,12.756
0.255,0.402,0.986,-12.939,6.836,11.108
0.257,0.438,0.919,-6.042,11.414,14.038
0.261,0.446,0.878,-4.944,13.306,12.390
0.257,0.456,0.851,-4.944,11.841,11.108
0.252,0.458,0.847,-11.292,9.094,5.432
0.251,0.352,0.830,-11.963,7.751,2.319
0.252,0.347,0.818,-1.099,7.385,6.470
0.258,0.388,0.776,3.113,6.592,7.263
0.260,0.352,0.783,2.075,3.662,5.676
0.248,0.316,0.827,-3.174,-1.526,6.348
0.237,0.368,0.845,-1.770,-1.892,8.972
0.233,0.402,0.852,4.761,-0.488,7.263
0.240,0.365,0.837,3.418,-0.854,5.188
0.244,0.349,0.853,-9.094,-4.333,5.066
0.241,0.364,0.883,-13.062,-4.700,5.920
0.237,0.368,0.876,-8.118,-3.235,7.080
0.227,0.435,0.915,-3.845,-4.028,8.850
0.230,0.468,0.941,-6.714,-1.587,6.897
0.248,0.437,0.894,-9.521,0.977,4.578
0.258,0.422,0.868,-3.967,2.258,3.784
0.269,0.413,0.866,-2.014,1.770,4.089
-0.156,1.095,2.082,-4.150,-129.822,46.692
-0.260,1.278,2.676,-65.552,-112.915,30.273
-0.397,1.638,3.372,-99.487,-74.585,10.925
-0.413,1.630,3.256,-106.628,28.381,-52.490
-0.417,1.426,2.988,-94.116,57.739,-78.247
-0.416,1.370,3.057,-86.548,105.164,-115.417
-0.417,1.078,2.580,-78.125,148.682,-133.057
-0.410,0.891,2.122,-69.275,209.839,-157.043
-0.349,0.551,1.282,-64.392,220.032,-165.649
-0.293,0.420,0.963,-63.904,214.294,-171.020
-0.232,0.142,0.575,-61.096,210.144,-171.387
-0.182,-0.051,0.172,11.780,223.022,-160.400
-0.111,-0.131,-0.467,37.659,205.322,-140.930
-0.067,-0.037,-0.353,20.813,128.784,-113.281
-0.012,-0.133,0.053,-12.878,107.056,-112.183
-0.099,-0.222,0.102,-35.645,100.403,-96.802
-0.111,0.056,0.167,-37.292,103.516,-96.802
-0.013,-0.112,0.081,-63.904,110.535,-135.376
0.102,-0.624,-0.148,-55.298,103.149,-120.300
0.132,-0.428,-0.057,-25.269,59.937,-25.818
0.196,0.417,0.383,-12.207,47.913,-1.648
0.215,0.518,0.362,31.189,73.059,-37.659
0.222,0.164,-0.111,36.072,80.505,-56.274
0.229,0.105,-0.224,5.005,45.715,-39.978
0.251,0.213,-0.284,-2.014,24.780,-27.405
0.233,0.266,-0.381,14.343,-5.066,-15.198
0.127,0.351,-0.714,9.094,-22.949,-10.437
0.067,0.364,-0.780,-61.035,-88.867,-3.723
-0.066,0.387,-0.555,-85.205,-121.765,-4.028
-0.106,0.362,-0.437,-58.350,-147.339,-14.099
-0.168,0.224,-0.435,-23.010,-148.376,-18.982
-0.189,0.165,-0.501,39.673,-161.865,-23.682
-0.187,0.073,-0.656,56.885,-178.162,-24.536
-0.228,0.121,-0.599,57.983,-203.125,-22.766
-0.329,0.309,0.112,13.611,-266.174,-20.447
-0.326,0.322,0.486,-4.700,-280.151,-24.170
-0.309,0.328,0.712,46.326,-264.709,-31.921
-0.244,0.368,1.122,89.478,-257.690,-37.537
-0.199,0.243,1.427,109.009,-249.145,-55.847
-0.132,-0.081,1.984,96.252,-239.807,-58.594
0.016,-0.308,2.554,71.838,-217.285,-54.565
0.068,-0.297,2.857,64.453,-175.232,-34.546
0.125,-0.007,3.120,83.496,-141.113,-27.283
0.161,0.031,3.101,105.896,-79.102,-36.377
0.210,-0.080,3.023,100.037,-56.030,-41.382
0.222,-0.119,2.987,94.299,-34.790,-42.419
0.246,-0.168,2.715,106.018,14.526,-38.574
0.258,-0.215,2.487,110.229,36.865,-37.170
0.293,-0.276,2.150,68.359,56.763,-31.860
0.290,-0.288,2.041,27.588,69.519,-20.508
0.276,-0.255,1.714,18.799,78.613,-14.954
0.281,-0.259,1.514,2.136,86.792,-8.057
0.271,-0.267,1.224,-12.146,83.496,-2.502
0.254,-0.209,1.165,-26.672,77.454,5.005
0.239,-0.114,1.136,-44.678,70.435,12.085
0.260,-0.126,1.089,-46.387,72.937,10.620
0.301,-0.163,1.032,-43.274,80.811,7.141
0.393,-0.315,0.920,-43.274,84.290,7.324
0.411,-0.385,0.890,-44.922,82.886,16.785
0.436,-0.512,0.856,-43.640,82.031,20.813
0.463,-0.677,0.777,-45.898,82.153,24.963
0.484,-1.134,0.599,-56.396,77.026,31.555
0.465,-1.439,0.543,-66.711,64.331,53.467
0.366,-1.927,0.300,-59.143,61.035,76.782
0.261,-1.890,0.189,-56.030,46.631,151.306
-0.036,-1.416,0.019,-74.951,39.551,186.829
-0.226,-0.915,-0.031,-91.736,31.616,220.520
-0.383,-0.082,-0.026,-59.937,6.592,276.978
-0.570,1.569,0.214,-54.016,-10.986,271.240
-0.623,2.078,0.530,-60.791,-36.011,209.595
-0.587,2.575,0.978,-48.706,-25.696,170.593
-0.529,2.520,1.000,-3.784,8.667,93.201
-0.423,2.222,0.967,14.954,17.822,64.697
-0.384,2.064,1.042,16.479,22.766,16.113
-0.247,1.455,1.037,10.681,32.166,-7.996
-0.152,1.071,0.830,19.043,48.279,-34.729
0.017,0.546,0.558,27.771,39.795,-36.865
0.095,0.339,0.574,36.804,11.902,-35.339
0.180,0.104,0.774,40.344,1.892,-28.625
0.198,0.061,0.908,32.043,-4.333,-17.212
0.241,-0.061,1.005,24.292,-0.671,-13.611
0.256,-0.039,0.984,18.250,3.113,-7.935
0.267,0.077,0.957,-4.028,4.700,0.793
0.274,0.064,0.979,-18.799,3.784,0.977
0.281,0.098,0.940,-14.160,13.306,11.414
0.289,0.374,0.745,-6.409,14.648,16.296
0.294,0.396,0.785,-17.395,0.061,9.521
0.308,0.354,0.903,-16.235,0.244,9.583
0.294,0.433,0.852,0.916,7.385,14.038
0.280,0.537,0.903,-6.470,3.723,8.240
0.296,0.418,0.978,-12.268,5.615,-6.409
0.300,0.348,0.840,7.812,13.245,-3.540
0.297,0.379,0.756,22.949,15.015,-1.221
0.303,0.350,0.777,9.888,-1.953,-5.432
0.335,0.221,0.921,-1.953,-5.920,-5.188
0.339,0.185,0.879,-1.465,1.404,3.784
0.309,0.271,0.776,3.845,-1.160,9.155
0.307,0.320,0.835,-0.061,-15.076,9.888
0.305,0.293,0.875,-4.272,-14.709,9.033
0.300,0.345,0.841,-3.235,-12.939,15.259
0.308,0.447,0.907,-4.944,-13.306,14.038
0.302,0.377,0.911,-9.338,-3.967,6.897
0.293,0.359,0.862,-8.911,-0.977,9.216
0.283,0.357,0.855,-9.216,-0.427,9.888
0.257,0.405,0.866,-5.859,-1.282,9.766
0.256,0.434,0.894,-5.615,-2.747,9.094
0.262,0.402,0.922,-3.418,0.000,1.831
0.271,0.323,0.862,3.174,4.883,1.648
0.272,0.310,0.801,7.446,3.723,3.113
0.253,0.369,0.860,4.333,-2.930,4.395
0.254,0.399,0.920,-4.700,-5.493,2.197
0.258,0.323,0.890,-5.554,-1.587,0.610
0.252,0.400,0.848,3.357,-0.427,7.385
0.263,0.497,0.866,-4.944,-3.967,2.869
0.260,0.362,0.930,-20.996,-7.874,-6.409
0.258,0.312,0.993,-20.142,-4.211,-2.075
0.245,0.412,0.952,-7.019,3.174,5.005
0.236,0.479,0.914,-5.188,5.920,-1.221
0.262,0.344,0.935,-10.559,2.319,-8.240
-0.303,2.151,1.643,45.715,-146.545,143.494
-0.449,2.404,1.968,7.019,-136.658,41.748
-0.637,2.302,2.849,-21.729,-132.080,-20.508
-0.681,1.989,3.188,-56.213,-63.293,-125.916
-0.812,1.562,3.177,-58.167,-4.395,-151.978
-0.838,1.442,2.992,-60.486,97.778,-197.205
-0.747,0.789,2.226,-45.166,141.968,-223.633
-0.670,0.544,1.754,-19.592,193.237,-231.567
-0.546,0.478,1.429,-35.950,195.068,-224.731
-0.485,0.227,1.390,-59.509,200.134,-227.356
-0.379,-0.372,0.821,-54.749,244.141,-221.741
-0.365,-0.267,0.595,-41.382,259.644,-194.031
-0.397,0.105,0.666,-108.154,249.939,-155.945
-0.395,-0.178,0.454,-135.437,269.836,-195.496
-0.154,-0.678,-0.353,-109.985,263.855,-184.570
-0.006,-0.478,-0.410,-100.281,226.929,-145.142
0.172,-0.151,0.008,-75.989,138.611,-91.980
0.173,-0.210,-0.002,-35.950,133.545,-90.881
0.148,-0.228,-0.411,53.894,147.644,-79.346
0.185,-0.091,-0.486,57.373,126.221,-62.744
0.204,0.118,-0.290,16.235,49.072,-41.199
0.200,0.126,-0.214,24.658,23.560,-36.072
0.188,0.155,-0.231,65.186,7.141,-13.916
0.160,0.374,-0.402,69.824,0.732,-4.028
0.128,0.459,-0.514,47.791,-23.437,-8.789
0.103,0.479,-0.719,35.706,-43.701,-16.846
0.086,0.464,-0.837,20.874,-96.680,-20.813
-0.022,0.538,-0.824,16.235,-135.071,-15.381
-0.103,0.588,-0.618,-12.878,-206.848,-18.372
-0.177,0.572,-0.233,-16.418,-222.656,-31.372
-0.122,0.477,-0.135,14.343,-219.299,-64.026
-0.089,0.023,-0.265,35.339,-211.121,-78.247
-0.146,-0.148,-0.395,61.035,-239.746,-66.223
-0.306,-0.119,-0.374,59.631,-276.306,-46.509
-0.442,-0.070,-0.060,62.317,-356.873,-15.137
-0.626,0.110,1.456,73.181,-385.925,-3.113
-0.601,0.231,2.157,75.562,-334.351,-5.554
-0.427,0.082,1.929,62.073,-259.827,-22.888
-0.399,-0.128,1.458,36.316,-205.017,-40.466
-0.399,-0.185,1.918,34.058,-233.093,-31.860
-0.337,-0.077,2.542,68.726,-218.994,-17.029
-0.195,0.082,2.729,92.834,-161.011,-15.198
-0.176,0.146,2.385,71.594,-76.233,-17.517
-0.171,-0.005,2.241,41.748,-73.242,-23.560
-0.162,-0.030,2.352,43.030,-52.734,-18.372
-0.069,0.042,2.185,55.786,-29.724,-17.212
-0.032,-0.007,2.102,33.447,-7.446,-20.752
-0.070,0.102,2.226,15.442,-1.587,-17.700
-0.103,0.150,2.302,-0.305,29.785,-23.865
-0.100,0.024,2.080,6.714,54.687,-29.114
-0.065,-0.049,1.845,24.475,86.731,-27.527
0.034,-0.098,1.494,27.283,90.271,-23.254
0.058,-0.109,1.424,14.526,82.397,-13.977
0.066,-0.052,1.567,4.089,78.979,-10.193
0.073,-0.021,1.552,-14.771,97.656,-7.690
0.143,-0.037,1.277,-25.452,105.835,-10.071
0.183,-0.108,1.181,-39.185,105.347,-15.076
0.244,-0.243,1.070,-40.405,104.919,-13.916
0.267,-0.322,0.985,-28.564,105.286,-9.521
0.308,-0.448,0.802,-25.940,100.586,-6.470
0.336,-0.580,0.704,-42.725,81.543,-8.240
0.361,-0.923,0.644,-58.899,65.247,-3.723
0.343,-1.039,0.755,-106.018,38.574,25.940
0.270,-1.331,0.821,-121.704,42.725,41.809
0.206,-1.489,0.776,-146.362,51.941,92.651
-0.067,-1.295,0.971,-145.935,53.894,136.841
-0.179,-0.913,0.827,-89.172,104.187,203.003
-0.198,-0.565,0.001,-94.971,115.967,203.552
-0.269,-0.339,-0.104,-122.253,63.904,236.816
-0.525,1.236,0.148,-95.520,36.621,261.841
-0.574,1.920,0.310,-71.289,10.925,214.722
-0.516,2.178,0.440,-78.613,14.954,166.321
-0.463,2.206,0.330,-56.580,32.166,106.873
-0.378,2.280,0.329,-37.964,27.954,84.473
-0.329,2.132,0.495,-2.258,19.775,34.119
-0.246,1.724,0.670,17.822,26.245,15.930
-0.210,1.464,0.661,37.292,37.109,-13.916
-0.119,0.931,0.644,42.175,36.987,-21.362
-0.067,0.783,0.630,52.124,30.945,-23.682
0.062,0.490,0.646,51.086,22.766,-25.818
0.100,0.360,0.738,51.147,2.747,-21.057
0.122,0.256,0.935,45.105,-6.104,-11.719
0.134,0.206,1.085,33.264,-9.094,-7.202
0.134,0.263,1.111,23.071,-2.930,-1.038
0.149,0.323,1.006,22.278,3.235,-8.179
0.181,0.227,0.948,27.527,7.568,-11.230
0.229,0.389,0.896,35.522,7.812,4.395
0.217,0.462,0.871,52.856,7.507,7.263
0.216,0.505,0.988,54.993,2.502,4.761
0.232,0.510,1.038,41.809,12.512,2.014
0.220,0.449,0.833,41.870,24.048,1.892
0.218,0.486,0.739,45.105,19.836,4.211
0.258,0.480,0.775,33.813,9.827,-0.610
0.264,0.382,0.793,-4.028,2.869,-9.827
0.259,0.297,0.701,-9.888,2.625,-6.714
0.264,0.327,0.699,-13.489,-7.629,0.977
0.270,0.300,0.809,-19.714,-10.864,1.404
0.267,0.257,0.806,-23.132,-5.737,7.690
0.253,0.368,0.790,-18.616,-4.822,16.296
0.228,0.446,0.791,-22.034,-5.737,20.386
0.212,0.461,0.746,-25.208,-7.568,15.686
0.219,0.454,0.761,-16.602,-15.930,13.062
0.216,0.488,0.875,-9.888,-17.334,13.977
0.206,0.487,0.874,-0.061,-8.972,13.062
0.186,0.448,0.849,6.531,-6.653,12.634
0.180,0.425,0.880,13.245,-5.615,11.780
0.161,0.418,0.843,12.451,-2.869,11.353
0.165,0.437,0.806,2.258,-7.141,6.470
0.181,0.368,0.882,-7.446,-12.207,2.869
0.180,0.341,0.906,-14.221,-12.512,2.930
0.157,0.418,0.885,-11.780,-4.333,12.817
0.153,0.427,0.895,-13.428,-2.747,14.893
0.156,0.359,0.908,-28.442,-0.488,12.451
0.161,0.410,0.876,-26.550,2.380,16.296
0.166,0.460,0.829,-21.973,4.150,17.212
0.170,0.405,0.806,-27.954,1.099,13.550
0.160,0.420,0.843,-30.090,-3.174,16.907
0.139,0.434,0.938,-34.424,-4.333,17.639
0.125,0.396,0.969,-33.997,-1.282,19.104
-0.804,1.513,1.149,-14.099,-130.981,235.107
-1.037,2.057,1.440,-51.392,-134.155,211.487
-1.378,3.225,2.181,-59.448,-126.282,157.898
-1.583,3.319,3.009,-67.627,-79.651,-34.729
-1.703,3.211,3.109,-37.781,60.669,-221.313
-1.720,2.564,2.516,-7.996,140.930,-312.073
-1.634,1.886,2.083,-19.531,252.747,-428.650
-1.395,0.791,1.309,-43.518,286.804,-436.768
-1.268,0.295,0.868,-80.872,303.833,-429.687
-0.771,-0.708,0.311,-82.703,276.489,-415.710
-0.542,-0.823,0.411,-83.069,208.313,-299.866
-0.353,-0.291,0.612,-80.078,199.829,-238.586
-0.264,-0.231,0.466,-79.529,221.191,-207.886
-0.043,-0.546,-0.132,-84.351,227.600,-205.383
0.065,-0.621,-0.375,-38.269,187.500,-160.156
0.192,-0.352,-0.401,-42.908,143.127,-129.211
0.244,-0.222,-0.312,-45.105,68.542,-101.379
0.277,-0.090,-0.023,-27.039,44.861,-91.064
0.285,0.014,0.133,29.968,28.320,-54.199
0.329,0.319,0.174,48.157,36.072,-36.987
0.356,0.432,0.077,46.326,45.410,-34.119
0.403,0.434,0.003,42.786,35.217,-42.542
0.429,0.372,0.034,58.533,6.897,-43.579
0.503,0.297,-0.009,70.496,-0.916,-36.621
0.524,0.267,-0.129,62.805,-13.000,-24.719
0.496,0.237,-0.364,44.067,-27.771,-16.663
0.449,0.321,-0.385,20.386,-49.805,-3.235
0.291,0.543,-0.235,-7.019,-101.929,14.160
0.209,0.521,-0.288,-11.292,-116.638,5.676
0.178,0.420,-0.490,-15.686,-138.428,-16.235
0.146,0.195,-0.864,-10.986,-165.161,-15.198
0.117,0.079,-0.985,24.536,-243.164,-5.371
-0.132,-0.045,-1.063,49.377,-295.349,7.141
-0.352,0.034,-0.925,73.120,-421.753,35.156
-0.787,0.092,-0.343,60.486,-479.980,38.879
-0.924,-0.073,0.051,35.767,-551.025,52.307
-1.217,-0.200,0.981,42.236,-559.326,78.918
-1.343,0.124,1.637,6.409,-550.476,140.259
-1.281,0.965,3.156,-41.809,-513.367,140.137
-1.112,0.934,3.382,-58.044,-295.227,73.120
-0.884,0.642,2.035,20.752,-170.959,50.598
-0.819,0.556,1.415,98.450,-105.225,28.809
-0.688,0.378,1.479,84.900,-121.399,25.757
-0.606,0.435,1.924,58.350,-108.398,29.602
-0.582,0.550,2.040,54.749,-79.895,27.405
-0.607,0.631,1.764,81.482,0.793,3.723
-0.652,0.547,1.480,95.581,31.860,-13.489
-0.586,0.456,1.236,97.900,42.725,-37.109
-0.515,0.330,1.441,76.843,31.128,-48.462
-0.495,0.419,1.812,51.880,44.373,-47.913
-0.486,0.568,1.724,58.716,75.439,-50.537
-0.473,0.564,1.595,39.063,118.652,-75.806
-0.554,0.520,1.440,28.809,126.221,-80.750
-0.516,0.445,1.287,27.100,134.583,-97.900
-0.333,-0.034,1.228,25.757,125.977,-99.976
-0.281,-0.072,1.357,45.227,117.493,-55.481
-0.205,0.343,1.536,34.607,126.953,-36.133
-0.204,0.337,1.539,-20.508,161.438,-47.852
-0.149,0.104,1.073,-6.348,182.373,-53.650
-0.091,0.045,0.812,12.268,178.955,-47.302
-0.027,0.008,0.936,0.671,156.311,-40.344
0.016,-0.003,1.099,-29.724,142.090,-25.513
0.062,-0.045,1.082,-46.570,151.733,-17.822
0.079,-0.057,0.939,-56.763,163.940,-13.611
0.218,-0.391,0.479,-53.040,158.997,-20.813
0.298,-0.740,0.353,-49.133,112.305,-16.602
0.334,-1.537,0.490,-54.321,82.764,3.479
0.306,-1.938,0.709,-130.371,41.382,74.829
0.051,-2.011,1.420,-166.748,42.542,135.864
-0.198,-1.533,1.461,-66.895,125.061,287.781
-0.650,0.782,0.634,27.039,160.339,352.478
-0.606,1.855,0.296,39.490,119.873,291.016
-0.350,1.793,0.463,-42.419,75.378,199.158
-0.251,1.512,0.621,-88.745,61.462,118.286
-0.198,1.773,0.146,-41.321,81.299,114.746
-0.166,2.044,-0.155,22.644,67.871,76.599
-0.072,1.913,-0.194,31.494,40.588,43.701
-0.038,1.695,-0.008,35.095,13.672,19.043
-0.017,1.479,0.280,33.936,-23.437,-4.761
-0.003,1.253,0.675,35.950,-22.705,-9.155
-0.003,1.101,0.699,27.100,-9.460,-25.269
-0.010,0.724,0.750,25.269,-8.911,-28.809
-0.000,0.629,0.810,17.212,-14.099,-25.818
0.048,0.395,0.958,6.714,-15.625,-26.367
0.086,0.303,0.988,2.441,-9.583,-17.700
0.146,0.238,0.981,6.226,-5.920,-10.925
0.145,0.271,0.968,17.029,-1.404,1.648
0.148,0.466,0.920,19.836,-0.610,2.441
0.166,0.405,0.938,-7.874,-3.601,-9.949
0.190,0.393,0.938,-3.357,1.343,-3.357
0.194,0.578,0.840,13.489,13.611,9.888
0.229,0.531,0.795,0.732,8.362,-0.183
0.238,0.431,0.836,-6.165,3.174,-6.409
0.216,0.641,0.719,27.100,11.658,5.920
0.233,0.701,0.678,31.982,11.536,5.615
0.251,0.538,0.722,-2.014,-3.723,-18.372
0.261,0.238,0.828,-2.380,-3.662,-12.756
0.242,0.318,0.777,24.841,6.165,15.686
0.250,0.478,0.701,37.842,3.906,17.639
0.218,0.402,0.742,32.227,-9.094,12.573
0.167,0.447,0.920,20.447,-13.489,16.968
0.158,0.504,0.931,37.598,-4.028,14.832
0.183,0.477,0.887,38.818,-0.549,10.132
0.195,0.412,0.882,31.372,-0.122,5.981
0.192,0.445,0.972,13.245,-2.808,8.789
0.199,0.473,1.002,3.235,-1.160,9.033
0.205,0.434,0.950,-7.751,12.390,1.587
0.220,0.448,0.774,-3.235,13.184,3.845
0.232,0.478,0.778,-4.333,-1.282,1.892
0.229,0.473,0.847,-4.456,-5.127,-0.488
0.235,0.476,0.855,-1.831,-5.188,-2.563
0.238,0.357,0.909,-6.226,-5.920,-5.310
0.230,0.312,0.924,2.502,-0.977,2.869
0.184,0.495,0.865,12.146,2.441,10.681
0.180,0.545,0.875,-3.845,-3.601,0.183
0.208,0.292,0.937,-13.916,-5.127,-7.141
0.206,0.238,0.912,3.113,4.761,13.855
0.132,0.583,0.810,19.287,7.202,26.611
0.136,0.717,0.805,9.460,-5.798,3.357
-1.273,1.987,1.719,107.910,-185.425,321.411
-1.417,2.445,1.988,78.613,-156.372,190.247
-1.673,2.692,2.455,18.616,-143.433,87.463
-1.847,2.827,2.830,-55.725,-103.149,-75.500
-2.105,2.829,3.381,-93.994,-54.810,-160.095
-2.051,2.129,3.347,-232.605,77.026,-348.877
-1.946,1.482,2.876,-202.026,150.269,-374.573
-2.030,1.848,2.482,-8.667,281.189,-403.381
-2.092,0.927,1.819,-15.381,313.049,-476.318
-1.896,-0.180,1.663,-114.624,325.256,-517.944
-1.410,-1.048,1.330,-115.540,340.027,-440.552
-1.220,-0.667,0.793,-108.032,409.607,-277.039
-0.575,-0.310,-0.401,-156.616,413.452,-254.395
-0.287,-0.561,-0.540,-304.626,332.458,-271.545
-0.281,-0.801,-0.513,-279.175,296.753,-262.817
-0.265,-0.685,-0.681,-58.716,250.916,-211.792
-0.028,-0.428,-1.022,1.221,213.379,-187.134
0.077,-0.313,-0.905,-98.267,92.102,-144.592
0.293,-0.322,-0.431,-133.118,48.035,-126.587
0.362,-0.320,-0.361,-29.602,37.598,-68.787
0.476,-0.112,-0.633,49.500,40.710,-33.508
0.490,0.088,-0.747,136.719,-6.165,18.005
0.532,0.537,-0.322,116.943,-52.917,19.653
0.577,0.533,0.043,55.725,-98.267,-32.288
0.629,0.151,0.312,56.458,-83.862,-43.518
0.624,0.116,0.209,71.655,-47.058,-3.601
0.522,0.357,-0.229,70.496,-41.809,17.517
0.457,0.454,-0.475,94.238,-74.036,23.499
0.282,0.484,-0.935,109.558,-109.131,15.991
0.130,0.448,-1.130,124.329,-206.848,1.648
-0.278,0.512,-1.156,102.905,-273.315,1.038
-0.481,0.606,-0.943,-1.282,-420.349,-20.386
-0.694,0.271,-0.393,-45.959,-477.112,-43.091
-0.721,0.026,-0.109,-9.949,-537.537,-33.752
-0.790,-0.167,0.332,52.246,-538.147,-10.620
-0.871,-0.381,0.139,81.787,-518.616,19.775
-1.253,-0.614,0.227,56.213,-544.006,54.504
-1.463,-0.448,0.961,-33.020,-617.432,143.250
-1.734,0.121,3.208,-84.229,-621.460,181.030
-1.659,0.820,3.988,-97.473,-570.007,209.595
-1.197,1.442,3.221,0.916,-271.545,135.559
-0.987,0.859,2.037,41.870,-116.943,50.476
-0.806,0.174,1.129,40.771,-42.175,-3.967
-0.614,-0.056,0.993,30.151,-73.853,30.823
-0.645,0.296,1.243,18.677,-91.003,83.374
-0.702,0.790,1.751,8.789,-76.355,75.867
-0.679,0.835,1.900,-5.005,-9.644,31.799
-0.814,0.917,1.896,5.554,30.273,6.409
-0.920,0.934,1.672,34.546,94.177,-50.598
-0.866,0.711,1.360,47.913,103.455,-80.261
-0.745,0.570,1.450,110.901,121.887,-116.211
-0.538,0.499,1.389,103.577,141.541,-117.187
-0.501,0.515,1.352,29.541,156.799,-111.145
-0.535,0.386,1.510,3.784,163.025,-113.220
-0.631,0.342,1.459,31.006,201.477,-109.802
-0.507,0.219,0.722,64.758,218.079,-105.713
-0.312,0.089,0.632,75.562,207.275,-95.886
-0.098,0.157,1.401,63.599,154.785,-43.823
-0.118,0.347,1.535,41.199,165.222,-19.592
-0.143,0.442,1.281,27.954,216.858,-36.926
-0.100,0.274,0.646,35.278,212.891,-57.251
-0.040,0.180,0.581,57.251,168.152,-62.500
0.108,-0.001,0.678,58.350,149.536,-52.490
0.170,-0.060,0.834,11.536,124.084,-21.973
0.210,-0.179,1.068,-17.029,126.709,-9.094
0.199,-0.299,0.951,-30.151,149.109,4.944
0.272,-0.647,0.372,-23.682,146.118,8.545
0.336,-0.978,0.254,-19.714,76.233,6.714
0.227,-1.880,0.990,-41.626,30.212,26.794
0.068,-2.029,1.557,-57.129,6.409,78.369
-0.153,-1.869,1.470,-3.540,77.026,213.989
-0.250,-1.672,0.871,44.739,132.568,277.466
-0.665,-0.016,0.094,94.788,149.963,431.946
-0.965,1.777,-0.041,134.216,120.666,495.117
-0.911,4.000,-0.038,99.243,18.494,374.207
-0.581,3.732,0.364,-86.304,-53.284,141.479
-0.069,1.301,1.682,-331.848,-110.229,-146.729
-0.053,1.419,1.469,-192.322,-35.828,-88.989
-0.123,2.053,-0.072,101.196,94.910,-16.174
-0.042,1.356,0.027,29.785,-10.376,-102.356
0.105,0.330,0.973,28.992,-32.410,-87.097
0.099,0.311,1.030,70.618,5.676,-34.180
0.146,0.123,0.885,76.294,14.648,-32.043
0.209,-0.096,0.845,79.712,16.296,-32.166
0.262,-0.002,0.692,101.746,18.066,-0.854
0.266,0.250,0.724,102.783,9.766,14.648
0.287,0.249,0.883,25.085,-16.418,-7.324
0.291,-0.189,1.116,-2.563,-13.794,-10.376
0.246,0.031,1.016,29.114,9.521,33.264
0.228,0.577,0.992,19.653,5.371,29.663
0.258,0.357,1.128,-41.687,3.662,-6.165
0.290,0.224,0.940,-29.419,21.057,6.348
0.278,0.491,0.687,28.564,30.762,30.029
0.291,0.615,0.638,21.057,12.573,14.709
0.304,0.366,0.807,-1.038,-11.169,-6.714
0.285,0.345,0.891,17.822,-4.089,7.812
0.248,0.589,0.854,24.231,2.563,17.212
0.261,0.429,0.954,-7.568,-0.916,-4.700
0.288,0.149,0.948,-30.701,10.498,-10.559
0.291,0.197,0.733,-15.259,16.235,8.545
0.265,0.395,0.701,-1.770,2.930,21.423
0.276,0.364,0.831,-11.658,-5.493,8.667
0.293,0.166,0.889,-13.733,-7.080,4.272
0.259,0.258,0.828,6.042,-2.869,21.057
0.226,0.469,0.793,29.480,-12.634,29.968
0.233,0.433,0.926,14.832,-22.522,15.198
0.234,0.291,0.975,-1.160,-24.048,9.827
0.183,0.593,1.129,10.925,-19.897,23.804
0.193,0.686,1.156,-0.977,3.845,2.441
0.199,0.234,0.927,-16.907,14.465,-15.198
0.190,0.255,0.882,2.136,10.376,4.517
0.209,0.462,0.885,0.305,7.141,4.517
0.219,0.312,0.884,-17.090,5.371,-7.812
0.223,0.184,0.907,-19.897,4.944,-3.479
0.222,0.318,0.882,-6.897,9.338,9.216
0.257,0.362,0.827,-3.174,12.634,7.202
0.206,0.276,0.779,9.155,10.071,4.944
0.190,0.418,0.883,21.057,-4.761,9.155
0.234,0.359,0.962,14.343,-0.854,-2.563
-0.699,1.260,1.235,34.851,-141.907,218.323
-0.796,1.445,1.207,29.297,-114.990,157.837
-0.880,1.526,1.250,6.226,-113.159,116.028
-0.925,1.308,1.285,-74.707,-115.906,39.856
-1.246,1.458,1.692,-71.045,-118.896,31.982
-1.382,1.872,2.070,-25.696,-101.624,-17.029
-1.751,2.314,2.821,-29.175,-73.303,-83.496
-2.065,2.616,3.273,-33.813,11.902,-244.568
-2.560,2.673,4.000,-44.250,87.097,-360.290
-2.825,1.927,3.857,-60.486,358.887,-584.290
-3.020,0.129,1.475,-42.236,492.676,-627.869
-1.749,-1.670,-0.281,-92.407,509.766,-593.689
-0.924,-2.180,-0.256,-183.716,420.776,-508.545
-0.278,-0.850,0.123,-180.786,305.298,-224.182
-0.312,-0.031,0.211,-123.291,306.763,-126.465
-0.291,-0.209,-0.186,-188.354,316.833,-173.584
-0.198,-0.708,-0.549,-135.010,289.734,-235.474
0.024,-0.709,-0.693,-70.862,237.244,-189.331
0.129,-0.387,-0.516,-54.443,128.662,-92.407
0.234,-0.076,-0.135,-65.918,96.497,-79.407
0.289,-0.150,-0.105,-12.573,85.083,-72.632
0.420,-0.187,-0.430,14.587,85.937,-61.829
0.469,-0.129,-0.621,61.279,49.561,-44.556
0.530,-0.062,-0.824,76.660,13.855,-33.936
0.526,0.085,-0.685,38.269,-74.036,-1.404
0.485,0.304,-0.415,30.212,-98.877,5.615
0.461,0.410,-0.574,25.085,-118.958,14.954
0.389,0.707,-0.820,18.372,-149.170,12.512
0.292,0.697,-0.730,10.071,-227.356,-20.447
-0.077,0.472,-0.786,20.386,-255.676,-26.001
-0.221,0.480,-0.931,67.017,-343.018,-26.733
-0.339,0.162,-0.797,60.425,-407.349,-43.213
-0.407,-0.338,-0.597,-29.114,-516.663,-48.645
-0.808,-0.822,-0.412,-74.890,-556.824,4.639
-1.063,-0.573,-0.222,-71.411,-620.544,141.052
-1.619,-0.395,0.591,-34.912,-633.972,179.626
-1.795,-0.286,1.391,109.985,-637.268,240.112
-1.920,0.572,3.453,186.096,-607.422,250.671
-1.830,1.097,4.000,221.191,-400.818,169.373
-1.178,1.051,3.164,195.129,-228.638,82.275
-0.941,0.483,1.841,154.968,-4.761,-27.832
-0.718,-0.213,0.727,122.559,-28.198,-25.818
-0.711,-0.211,1.308,36.194,-114.380,18.555
-0.720,0.206,2.352,6.348,-88.745,34.546
-0.751,0.361,2.294,-20.630,33.264,22.644
-0.853,0.449,1.365,1.526,76.843,1.465
-0.843,0.359,1.153,14.709,84.900,-21.484
-0.788,0.220,1.708,13.916,57.068,-43.884
-0.771,0.273,1.970,24.597,69.885,-42.480
-0.734,0.295,2.057,45.349,139.648,-48.401
-0.677,0.421,2.074,24.536,171.082,-50.293
-0.745,0.481,2.077,-62.866,236.694,-68.237
-0.895,0.320,1.251,-52.856,278.870,-87.646
-0.641,0.070,0.463,48.401,293.457,-111.328
-0.062,-0.341,0.172,51.453,233.093,-87.585
0.036,-0.148,0.975,-26.062,120.972,-1.831
-0.111,0.307,1.992,-44.250,148.254,13.550
-0.136,0.301,1.438,78.003,281.006,-13.000
0.024,0.104,0.024,117.859,283.936,-21.667
0.156,0.043,-0.084,88.989,167.053,-17.944
0.361,-0.122,0.426,33.081,110.291,-17.273
0.410,-0.338,0.739,-72.754,65.186,-13.184
0.354,-0.701,0.951,-81.787,75.195,0.549
0.320,-0.804,0.793,-58.960,92.651,17.700
0.314,-1.149,0.465,-13.062,90.393,42.358
0.293,-1.417,0.595,-21.973,58.716,52.246
0.234,-1.719,0.914,-74.707,6.714,104.919
-0.039,-2.142,1.509,-91.431,17.761,161.865
-0.163,-2.132,1.483,-44.434,107.117,322.876
-0.516,-1.498,0.681,-2.869,150.818,411.377
-0.890,-0.604,0.337,89.905,149.292,578.064
-1.500,2.579,0.158,147.461,112.915,611.328
-1.466,3.904,0.116,78.613,5.066,383.240
-0.981,3.624,0.597,-52.917,-57.556,170.105
-0.642,2.408,1.089,-206.177,-93.628,-80.933
-0.359,1.423,1.128,-130.737,-44.617,-62.439
-0.339,1.748,0.799,43.640,15.442,-22.339
-0.235,1.339,0.871,48.462,-0.549,-59.082
-0.147,0.868,1.079,27.710,-7.935,-96.558
-0.004,0.263,1.126,34.851,8.423,-87.952
0.043,0.159,1.057,48.523,23.621,-70.679
0.092,0.184,0.946,68.176,38.513,-37.170
0.195,0.073,0.764,53.284,32.288,-34.180
0.195,-0.010,0.806,12.817,4.639,-20.874
0.155,0.229,1.006,8.545,-2.380,-9.705
0.181,0.183,1.057,-9.949,2.991,-12.817
0.176,0.081,0.996,-14.221,10.559,-1.648
0.111,0.453,0.948,9.277,20.569,26.794
0.146,0.649,0.832,4.028,20.874,3.723
0.206,0.260,0.813,-20.630,11.230,-27.161
0.227,0.210,0.840,-11.353,9.460,-3.296
0.202,0.502,0.786,2.991,12.512,20.447
0.199,0.570,0.665,-10.254,8.667,8.667
0.209,0.348,0.736,-28.503,-3.906,-9.216
0.211,0.224,0.852,-17.090,-14.282,-0.732
0.216,0.276,0.888,-5.310,-8.484,9.460
0.218,0.260,0.841,-1.282,-3.967,15.381
0.191,0.317,0.850,1.953,-6.958,19.531
0.186,0.387,0.880,-1.343,-11.292,16.296
0.203,0.313,0.889,-10.498,-12.207,8.728
0.204,0.288,0.897,-4.822,-11.902,11.902
0.194,0.439,0.881,5.310,-9.705,15.320
0.198,0.448,0.875,-4.150,-12.268,3.784
0.200,0.311,0.903,-10.925,-13.550,0.549
0.190,0.389,0.894,-7.141,-12.146,6.348
0.187,0.482,0.898,-7.202,-11.292,7.324
0.201,0.333,0.931,-16.296,-13.062,-3.601
0.212,0.195,0.959,-13.489,-9.460,0.854
0.190,0.321,0.893,-6.531,-3.601,14.526
0.168,0.492,0.820,-11.169,-2.869,15.442
0.174,0.407,0.838,-25.269,-11.230,-0.366
0.196,0.221,0.906,-33.325,-16.418,-7.263
0.190,0.188,0.838,-27.161,-9.399,8.911
0.144,0.408,0.773,-5.188,-6.653,39.551
0.130,0.706,0.823,-7.080,-11.230,31.555
0.144,0.507,0.864,-32.898,-16.479,-4.639
0.111,0.362,0.911,-26.855,-14.404,4.272
0.065,0.619,0.899,9.155,-5.493,29.236
0.082,0.729,0.887,-0.977,-5.981,11.108
-1.539,1.803,1.559,61.523,-152.100,336.060
-1.645,2.325,1.630,127.502,-134.277,168.213
-1.749,2.309,2.188,75.256,-137.817,35.217
-1.874,2.036,2.585,-38.635,-107.910,-165.894
-2.326,2.241,3.549,-51.941,-63.599,-223.877
-2.608,2.387,3.864,-11.475,137.268,-395.081
-3.289,1.490,3.218,-2.991,278.870,-502.075
-3.562,0.704,2.432,-92.041,497.864,-630.432
-3.141,-0.692,0.740,-147.339,541.504,-642.456
-2.398,-1.434,0.265,-246.521,469.421,-597.046
-0.930,-2.436,0.769,-310.913,391.846,-511.108
-0.562,-1.191,0.991,-273.865,366.516,-233.582
-0.524,-0.249,0.382,-135.559,423.035,-117.493
-0.269,0.320,-0.993,4.395,471.252,-107.788
-0.089,0.100,-1.168,-14.893,414.673,-166.016
0.225,-0.448,-0.684,-50.476,230.835,-209.900
0.359,-0.585,-0.420,-26.917,166.931,-181.824
0.480,-0.415,-0.443,27.832,134.949,-83.740
0.475,-0.177,-0.599,37.903,130.981,-41.260
0.509,0.236,-0.807,51.941,83.862,-3.235
0.526,0.329,-0.907,51.697,54.810,-6.775
0.457,0.374,-1.036,35.889,-1.404,-29.663
0.388,0.384,-0.899,5.554,-48.828,-36.621
0.393,0.309,-0.501,-49.500,-148.804,-41.687
0.361,0.231,-0.523,-68.542,-168.579,-39.795
0.197,0.313,-1.043,-76.660,-186.462,-9.827
0.053,0.453,-1.258,-57.861,-223.816,5.798
-0.155,0.556,-1.403,9.766,-352.356,-8.057
-0.587,0.388,-1.420,45.166,-433.960,-37.659
-0.878,0.060,-1.030,24.719,-597.534,-60.120
-1.360,-0.350,-0.199,7.263,-635.620,-26.245
-1.509,-0.447,-0.117,-5.066,-653.320,49.011
-1.744,-0.902,0.264,-8.850,-667.114,88.074
-1.889,-1.009,0.802,48.584,-677.246,202.332
-2.168,-0.411,2.619,79.407,-666.504,256.714
-2.221,0.461,3.510,170.959,-523.682,305.969
-1.800,2.147,3.526,238.159,-371.887,241.760
-1.448,1.704,2.768,138.062,-113.586,-33.508
-0.942,-0.386,1.534,68.909,-65.491,-94.788
-0.820,-0.651,1.228,38.147,-47.791,-18.433
-0.819,-0.029,1.273,23.315,-56.885,26.794
-0.862,0.351,1.703,-19.470,-56.702,39.429
-1.030,0.636,2.165,-28.564,-18.677,15.991
-1.068,0.532,1.768,-3.601,76.538,-39.063
-0.914,0.078,0.991,3.601,82.153,-56.580
-0.802,-0.084,1.125,9.949,48.035,-49.683
-0.706,0.004,1.673,23.926,52.551,-32.959
-0.694,0.221,1.858,27.222,96.008,-14.038
-0.772,0.641,2.087,-5.859,123.779,-23.682
-0.882,0.609,1.943,-45.105,203.125,-76.355
-0.798,0.031,0.689,-22.888,231.873,-99.792
-0.514,-0.288,0.320,-18.066,218.384,-107.788
-0.190,-0.494,1.136,-67.688,111.572,-62.500
-0.222,-0.251,1.727,-84.412,90.210,-21.606
-0.332,0.038,2.070,-112.549,153.076,9.155
-0.382,0.000,1.839,-116.516,203.857,3.174
-0.366,-0.135,1.333,-10.559,283.447,-18.921
-0.078,-0.835,0.171,39.673,276.550,-20.813
0.044,-1.037,0.285,-19.531,140.991,39.795
-0.048,-0.922,1.609,-69.214,94.604,82.336
-0.145,-0.798,1.863,-82.947,169.128,151.428
-0.228,-0.819,0.952,-58.899,232.422,172.302
-0.258,-0.832,0.299,-2.075,249.145,233.704
-0.363,0.227,-0.376,15.198,206.177,283.508
-0.470,1.032,-0.361,-20.142,91.309,294.617
-0.523,1.870,0.219,-50.781,45.715,239.441
-0.410,1.506,0.362,-101.013,35.034,96.313
-0.295,0.494,0.140,-88.013,44.861,80.933
-0.342,0.600,0.156,-29.541,29.907,141.907
-0.498,1.272,0.584,-13.977,21.179,150.146
-0.518,1.439,0.663,-2.014,34.424,103.088
-0.464,1.387,0.505,-21.851,32.593,67.810
-0.388,1.164,0.592,-70.251,-3.845,3.723
-0.242,0.622,0.990,-60.608,-6.592,-6.042
-0.214,0.638,0.975,24.231,32.532,26.184
-0.195,1.097,0.638,47.791,42.786,33.386
-0.175,1.143,0.594,24.048,19.897,-3.967
-0.114,0.886,0.780,9.766,8.484,-23.132
-0.066,0.713,0.835,10.376,12.390,-36.865
-0.015,0.481,0.778,14.099,18.005,-30.823
-0.028,0.565,0.753,15.503,17.334,-11.353
-0.002,0.641,0.783,11.292,13.428,-17.456
0.055,0.443,0.802,3.723,10.803,-29.724
0.063,0.355,0.758,6.042,11.353,-17.151
0.033,0.591,0.741,21.484,9.583,1.038
0.036,0.708,0.779,17.822,-4.028,-13.367
0.121,0.306,0.927,5.188,-7.141,-27.832
0.144,0.177,0.923,10.986,3.418,-5.920
0.099,0.411,0.855,20.142,6.042,10.681
0.091,0.508,0.881,13.123,1.465,8.118
0.117,0.311,0.910,1.709,2.014,0.671
0.090,0.286,0.876,8.972,5.554,18.127
0.027,0.651,0.920,24.048,2.625,26.733
0.046,0.651,0.991,9.521,1.465,0.305
0.073,0.356,0.941,2.686,8.484,-5.737
0.073,0.416,0.875,31.067,16.174,16.541
0.095,0.624,0.804,31.311,14.282,16.418
0.102,0.502,0.794,-1.953,4.639,-3.540
0.075,0.380,0.865,-1.343,0.366,1.709
0.058,0.485,0.889,14.709,-2.014,14.648
0.068,0.519,0.906,3.296,-3.357,6.714
0.087,0.430,0.924,-13.000,-0.671,-9.155
0.070,0.410,0.885,0.183,6.042,-2.502
0.082,0.453,0.828,2.441,8.972,7.629
0.098,0.360,0.825,-5.249,4.272,2.014
0.089,0.315,0.854,-0.671,-1.038,6.653
0.093,0.358,0.859,7.446,0.488,13.855
0.082,0.380,0.815,15.808,4.272,20.630
0.025,0.562,0.770,14.832,-0.305,24.414
0.025,0.619,0.824,-21.912,-17.700,6.409
0.055,0.373,0.945,-37.903,-19.348,-8.667
0.053,0.278,0.938,-19.104,-5.859,0.488
0.028,0.438,0.847,1.404,-1.221,15.869
0.023,0.532,0.838,7.141,-5.432,18.250
0.041,0.459,0.860,-4.211,-8.179,10.254
0.034,0.413,0.854,-11.353,-9.033,6.714
0.015,0.519,0.848,-6.775,-11.292,15.930
0.023,0.537,0.865,-8.240,-13.794,16.296
0.026,0.496,0.876,-15.015,-14.282,9.277
-0.771,1.372,1.306,40.222,-265.503,105.286
-0.936,1.213,1.959,-63.232,-263.184,8.545
-1.289,1.304,3.061,-45.471,-212.219,-7.446
-1.389,1.522,3.391,13.611,-45.715,-63.965
-1.732,1.683,3.288,27.893,56.885,-113.953
-1.908,1.707,3.165,12.207,201.233,-229.614
-1.992,1.011,3.235,-7.019,251.892,-289.978
-2.028,0.505,2.950,-24.536,384.827,-343.079
-1.755,-0.116,1.969,-38.513,437.927,-335.449
-1.504,-0.530,1.651,-194.214,464.661,-292.969
-1.028,-1.003,0.826,-229.797,470.947,-243.164
-0.719,-0.740,0.129,-177.917,470.703,-130.249
-0.296,-0.064,-0.455,-159.729,417.969,-108.337
-0.139,0.059,-0.226,-161.743,286.926,-115.967
0.035,-0.073,-0.241,-130.005,268.860,-126.953
0.106,-0.162,-0.556,-91.187,257.629,-128.601
0.182,-0.280,-0.918,-97.900,230.286,-122.498
0.182,-0.320,-0.983,-67.505,165.466,-104.919
0.152,-0.309,-1.304,-19.043,143.494,-87.341
0.098,-0.208,-1.460,69.885,67.078,-41.199
0.030,0.121,-1.333,71.716,-5.188,-21.851
-0.010,0.272,-1.180,-5.554,-124.817,-11.902
-0.121,0.461,-1.049,-35.034,-154.846,-19.531
-0.138,0.453,-1.045,-39.246,-201.660,-56.152
-0.103,0.122,-1.252,-12.512,-227.600,-70.251
-0.149,-0.046,-1.400,74.280,-309.814,-48.584
-0.521,0.005,-1.379,119.812,-372.314,-23.987
-0.802,0.245,-1.075,190.552,-516.235,-2.441
-1.246,0.477,-0.070,189.270,-572.998,-23.865
-1.375,0.140,0.423,55.603,-626.099,-81.360
-1.575,-0.619,1.718,-40.222,-639.160,-61.768
-1.552,-0.545,2.560,-80.383,-586.121,55.969
-1.297,0.234,3.142,-5.859,-483.643,94.666
-1.218,0.493,2.872,85.510,-285.400,68.054
-1.154,0.396,2.986,27.405,-204.529,12.878
-0.960,0.200,3.114,25.574,-136.963,3.418
-0.867,0.226,2.638,45.349,-53.040,2.625
-0.768,0.449,1.934,64.026,34.607,1.343
-0.736,0.477,2.026,46.997,33.264,-8.301
-0.687,0.427,2.210,12.024,46.509,-28.320
-0.643,0.369,2.093,13.245,75.684,-30.273
-0.595,0.405,1.774,20.203,120.544,-33.447
-0.435,0.314,1.389,16.479,121.033,-38.757
-0.349,0.296,1.335,11.658,115.173,-38.147
-0.230,0.261,1.250,6.592,116.516,-38.940
-0.198,0.262,1.122,1.709,124.573,-41.077
-0.132,0.282,0.759,2.197,123.657,-43.457
-0.090,0.214,0.614,5.005,103.027,-45.105
-0.013,0.188,0.511,8.850,86.792,-38.452
0.032,0.221,0.517,14.648,57.373,-29.663
0.069,0.244,0.677,9.888,45.715,-27.893
0.062,0.283,0.828,-5.005,38.757,-25.818
0.059,0.256,0.953,-4.272,46.814,-29.724
0.079,0.130,0.890,27.405,61.035,-43.457
0.118,-0.357,0.877,44.861,58.105,-47.791
0.132,-0.638,0.960,56.824,44.312,-38.208
0.122,-1.062,1.271,45.654,38.391,-24.109
0.084,-1.191,1.481,-25.330,44.006,7.507
-0.031,-1.543,1.684,-75.317,60.364,28.503
-0.108,-1.680,1.637,-120.056,111.938,117.065
-0.161,-1.481,1.278,-90.088,140.137,173.828
-0.182,-1.231,0.949,23.926,175.110,265.442
-0.274,-0.553,0.373,67.383,170.593,302.856
-0.379,-0.102,0.214,87.952,125.366,358.887
-0.597,1.264,0.231,60.547,88.135,369.019
-0.710,2.050,0.425,-81.116,11.047,290.894
-0.614,2.762,0.869,-136.108,-6.042,192.261
-0.456,2.229,0.848,-157.837,-0.183,75.928
-0.240,1.298,0.521,-72.937,30.029,-15.320
-0.201,1.433,0.544,1.587,26.855,11.353
-0.203,1.569,0.713,47.852,5.188,14.099
-0.192,1.144,0.905,33.020,6.836,-11.169
-0.155,0.863,0.835,20.325,18.860,-29.236
-0.085,0.612,0.809,23.193,18.311,-25.391
-0.038,0.478,0.813,24.231,21.667,-28.992
0.065,0.110,0.654,24.353,22.278,-28.320
0.095,0.094,0.636,24.475,5.310,-5.493
0.149,0.154,0.793,14.160,-3.601,-0.244
0.158,0.093,0.843,-4.272,-5.859,4.089
0.131,0.165,0.855,2.502,-4.639,12.939
0.104,0.299,0.896,9.949,-8.301,22.339
0.125,0.376,1.008,0.122,-9.216,15.503
0.152,0.289,1.015,-9.460,-6.409,7.507
0.148,0.359,0.916,17.639,6.836,15.625
0.117,0.509,0.893,34.851,9.399,20.508
0.108,0.562,0.921,27.161,0.610,0.061
0.134,0.253,0.981,5.432,-1.953,-11.108
0.146,0.173,0.967,2.930,4.944,5.493
0.143,0.327,0.863,13.367,8.728,16.418
0.133,0.400,0.825,12.146,1.404,12.634
0.154,0.354,0.892,-1.770,-6.836,3.418
0.176,0.211,0.917,-29.663,-11.658,-5.859
0.167,0.083,0.873,-33.813,-11.597,4.089
0.131,0.268,0.932,-29.236,-15.137,20.264
0.125,0.466,1.032,-16.174,-15.930,20.264
0.161,0.229,0.992,-23.010,-8.057,2.747
0.153,0.127,0.924,-12.634,-4.150,14.587
0.121,0.452,0.983,6.104,-6.653,28.870
0.105,0.485,0.988,-1.709,-3.235,11.536
0.072,0.329,0.958,-2.014,-3.662,2.930
0.070,0.354,1.007,8.118,-4.578,5.920
0.076,0.350,1.017,2.441,0.549,4.089
0.072,0.340,0.969,-4.700,5.615,3.296
0.084,0.370,0.941,-6.958,3.784,1.709
0.089,0.290,0.931,-16.785,2.869,-5.371
0.079,0.250,0.898,-11.414,3.235,0.061
0.072,0.346,0.893,-0.854,3.540,7.935
0.071,0.407,0.879,2.747,2.747,7.629
0.082,0.410,0.902,0.488,0.244,4.578
0.090,0.441,0.920,1.587,1.709,2.075
0.107,0.385,0.852,-2.930,4.028,-2.563
0.111,0.311,0.829,-7.324,0.244,-3.235
0.110,0.302,0.862,-2.075,-2.441,2.075
0.112,0.316,0.865,4.272,-3.784,7.446
0.093,0.350,0.861,3.113,-5.249,8.728
0.075,0.421,0.892,1.770,-10.254,8.484
0.077,0.408,0.968,-2.319,-11.047,-0.183
0.084,0.291,0.967,-9.216,-5.981,-8.423
0.080,0.302,0.924,-2.258,-3.479,0.793
-1.471,1.377,2.016,-17.822,-303.528,233.093
-1.838,1.861,2.898,9.705,-286.865,170.898
-2.124,2.629,4.000,26.367,-201.965,98.267
-2.176,2.584,3.639,6.836,125.122,-129.150
-2.204,1.664,2.045,-33.020,220.520,-237.366
-2.074,1.160,2.100,-99.365,196.106,-362.610
-1.744,0.083,2.542,-79.590,212.402,-378.540
-1.607,-0.295,2.315,1.465,335.449,-307.617
-1.479,0.083,1.334,31.311,385.864,-240.906
-1.325,0.470,0.910,-20.569,401.306,-206.177
-0.799,-0.114,0.371,-69.580,383.362,-248.230
-0.526,-0.618,0.211,-133.667,329.224,-249.207
-0.133,-0.674,0.121,-133.606,299.805,-196.838
0.001,-0.444,0.090,-30.151,273.376,-95.947
0.121,-0.014,-0.221,-1.831,273.804,-64.697
0.142,0.127,-0.411,-25.269,248.535,-57.434
0.232,0.129,-0.588,-34.424,213.196,-75.439
0.273,0.032,-0.576,-35.217,130.127,-101.074
0.277,-0.027,-0.425,-15.076,95.215,-95.886
0.264,0.075,-0.339,65.796,50.354,-60.425
0.277,0.281,-0.276,76.355,39.063,-48.950
0.295,0.294,-0.312,38.940,29.785,-51.208
0.294,0.328,-0.503,32.593,25.818,-49.805
0.305,0.398,-0.634,90.881,10.193,-37.170
0.319,0.514,-1.010,123.779,-2.197,-37.537
0.287,0.530,-1.212,114.258,-63.538,-56.030
0.064,0.531,-1.349,64.941,-121.033,-68.481
-0.102,0.584,-1.179,-39.246,-291.382,-85.815
-0.401,0.596,-0.312,-61.523,-374.268,-102.417
-0.502,0.415,0.097,-78.186,-430.725,-140.137
-0.622,-0.020,0.324,-46.753,-414.551,-136.169
-0.669,-0.092,0.175,107.849,-389.038,-108.826
-0.883,-0.188,0.066,148.865,-408.508,-111.938
-1.013,-0.390,0.398,103.638,-477.966,-116.699
-1.047,-0.805,1.308,82.520,-487.915,-92.468
-1.081,-0.704,1.674,72.571,-449.524,-3.906
-1.231,-0.051,2.525,49.316,-419.922,19.409
-1.168,0.045,2.911,-8.423,-305.481,-10.376
-0.948,-0.177,2.673,7.141,-211.975,-23.987
-0.870,-0.214,2.061,123.535,-71.167,-17.395
-0.682,-0.361,1.227,145.020,-64.941,-16.663
-0.640,-0.500,1.348,85.327,-112.122,-2.319
-0.703,-0.277,2.140,49.438,-116.516,14.404
-0.736,-0.078,2.468,-9.766,-60.547,16.541
-0.879,0.136,2.523,-28.259,-12.878,6.042
-0.947,0.151,2.239,-39.917,66.101,-20.691
-0.915,-0.048,1.891,-39.612,78.918,-32.715
-0.873,-0.132,2.007,-38.391,88.318,-31.372
-0.836,-0.074,2.505,-40.894,107.788,-23.499
-0.830,-0.048,2.598,-66.956,192.993,-18.311
-0.855,-0.057,2.190,-79.346,243.958,-19.714
-0.860,-0.025,1.797,-75.745,287.048,-21.301
-0.740,0.027,0.735,0.488,333.496,-25.024
-0.489,-0.024,0.180,39.429,326.965,-27.283
-0.169,-0.135,-0.141,29.663,229.065,-19.775
0.194,-0.083,0.135,-1.343,166.504,-2.930
0.200,0.165,0.325,-54.443,109.558,17.395
0.178,0.290,0.314,-78.857,99.487,2.136
0.210,0.113,0.242,-66.162,71.838,-25.146
0.304,-0.001,-0.128,-27.832,56.763,-19.287
0.332,0.089,-0.214,-8.667,-7.874,-9.827
0.330,-0.150,0.263,-37.415,-45.471,-17.944
0.297,-0.474,0.582,-79.651,-73.120,-15.625
0.100,-0.988,1.174,-93.201,-70.129,0.305
-0.007,-1.230,1.458,-102.112,-33.936,35.828
-0.185,-1.915,1.792,-117.004,-4.028,58.472
-0.302,-2.237,1.937,-198.242,58.838,144.714
-0.622,-2.163,1.890,-192.078,110.596,224.609
-0.804,-1.490,1.421,19.226,233.398,428.223
-1.181,1.059,0.236,96.985,246.338,496.277
-1.130,2.387,0.076,69.824,158.081,423.523
-0.700,2.804,0.066,-4.456,115.295,286.316
-0.533,2.281,-0.054,-61.279,88.562,163.391
-0.379,1.776,0.011,-59.448,31.616,75.928
-0.362,1.757,0.299,-40.100,-2.930,65.613
-0.301,1.493,0.586,-18.433,-26.489,26.611
-0.247,1.120,0.671,-30.151,-28.748,-0.793
-0.179,0.719,1.067,-37.170,-33.997,-9.521
-0.162,0.810,1.054,-12.756,-16.602,4.700
-0.137,0.857,0.837,14.587,17.944,-1.404
-0.077,0.608,0.614,2.686,7.202,-15.259
-0.042,0.527,0.781,-20.386,-25.391,-24.597
0.029,0.256,1.037,-30.579,-24.536,-27.771
0.035,0.132,1.041,-26.611,-9.460,-9.338
0.011,0.430,1.062,-7.812,-3.723,6.653
0.022,0.483,1.046,1.770,8.667,-4.822
0.055,0.161,0.952,-3.967,11.902,-7.751
0.057,0.205,0.929,6.897,15.381,28.015
0.016,0.640,0.854,20.264,16.602,40.100
0.004,0.779,0.847,17.029,10.071,24.292
0.036,0.566,0.874,4.211,7.507,7.935
0.048,0.414,0.853,-1.953,8.057,1.709
0.039,0.390,0.806,12.817,10.742,19.348
0.020,0.506,0.750,13.611,6.104,22.827
0.020,0.435,0.766,-22.583,-10.132,7.507
0.021,0.275,0.804,-36.438,-16.479,6.836
0.046,0.369,0.886,-17.395,-18.127,26.550
0.069,0.501,0.953,-2.136,-6.226,27.710
0.067,0.433,0.853,6.897,12.695,17.761
0.062,0.385,0.729,7.446,9.094,18.677
0.060,0.434,0.737,8.240,2.075,20.996
0.068,0.444,0.781,1.709,-8.667,17.334
0.067,0.431,0.806,-2.686,-11.841,14.709
0.055,0.455,0.857,-8.484,-15.320,14.771
0.040,0.415,0.879,-14.282,-15.747,12.024
0.007,0.393,0.952,-15.076,-14.893,12.390
0.005,0.419,0.959,-2.869,-6.104,14.343
0.001,0.417,0.853,0.122,-2.319,13.550
0.001,0.431,0.816,-2.991,-7.996,14.587
-0.001,0.426,0.845,-8.606,-13.733,13.550
-0.011,0.404,0.883,-12.390,-17.761,13.000
-0.036,0.489,0.898,-2.136,-15.686,19.775
-0.036,0.518,0.891,2.075,-13.672,20.142
-0.030,0.475,0.932,-4.578,-14.648,13.428
-0.024,0.478,0.931,4.150,-8.789,15.747
-0.017,0.503,0.864,7.690,-6.104,16.663
-0.024,0.513,0.835,4.578,-9.216,15.503
-0.053,0.551,0.888,1.099,-14.526,13.062
-0.049,0.521,0.957,-9.399,-17.761,2.808
-0.930,1.847,2.112,81.360,-115.601,97.778
-1.250,2.298,2.875,58.167,-80.627,-10.864
-1.484,2.128,3.749,3.784,0.244,-116.333
-1.431,1.382,3.389,-30.396,271.973,-291.321
-1.150,0.286,1.626,-7.446,361.633,-295.105
-0.927,0.202,1.244,-63.904,325.928,-240.540
-0.482,-0.126,1.239,-108.887,291.443,-225.647
-0.285,-0.353,0.949,-95.398,276.062,-153.687
-0.063,0.121,0.589,-68.359,255.005,-98.022
-0.016,0.362,0.688,-77.026,200.500,-64.636
0.058,0.261,0.698,-83.069,198.303,-75.989
0.094,0.208,0.458,-20.020,218.384,-83.374
0.144,0.347,0.123,0.244,207.520,-79.224
0.185,0.399,0.067,3.296,171.326,-82.397
0.235,0.343,-0.180,13.977,160.889,-86.792
0.239,0.342,-0.358,28.564,150.818,-85.144
0.255,0.357,-0.551,43.335,116.272,-78.186
0.249,0.340,-0.723,27.832,84.656,-79.102
0.227,0.358,-0.652,-25.208,9.216,-81.299
0.201,0.486,-0.472,-40.588,-13.977,-84.595
0.187,0.466,-0.553,-52.490,-25.269,-108.459
0.176,0.147,-1.074,-53.528,-38.635,-121.216
0.097,-0.113,-1.290,-33.325,-125.977,-111.938
0.025,-0.089,-1.192,47.363,-240.723,-64.148
-0.155,0.162,-0.693,80.750,-285.583,-50.720
-0.203,0.174,-0.470,90.515,-315.613,-54.443
-0.369,0.096,-0.033,34.973,-355.225,-70.557
-0.446,0.195,0.245,7.568,-373.047,-65.796
-0.615,0.258,0.557,5.798,-382.019,-71.167
-0.716,0.114,0.762,-7.690,-388.184,-81.604
-0.792,-0.071,1.208,-61.279,-420.044,-69.397
-0.873,-0.192,2.615,-50.537,-416.809,-41.077
-0.825,0.028,3.148,87.463,-287.537,12.329
-0.603,0.371,2.843,139.771,-177.917,6.165
-0.503,0.282,2.290,116.272,-48.767,-39.063
-0.352,-0.070,1.900,84.473,-44.983,-46.875
-0.319,-0.108,2.078,70.862,-41.138,-31.189
-0.225,0.002,2.147,78.430,-17.700,-24.475
-0.186,0.058,2.060,53.101,21.362,-19.897
-0.176,0.106,2.011,34.058,34.363,-19.775
-0.156,0.108,1.881,44.556,68.420,-21.057
-0.067,0.032,1.458,51.819,76.233,-21.851
-0.028,0.014,1.362,45.837,72.205,-20.264
0.007,0.011,1.313,23.376,58.044,-17.944
0.062,-0.070,1.184,15.747,52.917,-18.250
0.076,-0.109,1.177,8.606,39.368,-10.559
0.081,-0.187,1.149,6.226,37.048,-4.761
0.057,-0.190,1.149,2.686,32.593,12.146
0.020,0.079,1.222,4.822,32.654,20.874
0.029,0.178,1.177,0.122,39.185,12.756
0.086,0.035,1.135,-10.437,36.987,3.296
0.100,-0.049,1.187,-25.452,34.973,5.188
0.066,-0.017,1.326,-27.527,38.818,11.475
0.049,0.028,1.358,-25.696,45.410,14.221
0.082,-0.064,1.146,-21.118,65.796,5.554
0.105,-0.192,1.067,-24.536,67.139,0.916
0.121,-0.276,1.080,-34.790,55.664,9.033
0.135,-0.416,1.209,-44.495,53.650,13.794
0.118,-0.589,1.307,-61.646,61.707,21.240
0.099,-0.871,1.197,-52.002,77.271,33.447
0.097,-0.961,0.969,-43.274,92.712,66.467
0.087,-1.150,0.855,-53.467,83.618,85.999
0.094,-1.226,0.807,-57.617,87.830,139.404
0.073,-1.377,0.299,-48.340,94.543,173.889
-0.021,-1.316,0.117,-39.978,74.585,264.465
-0.345,-0.099,0.196,-46.936,56.580,311.890
-0.474,0.672,0.216,-74.097,43.030,330.139
-0.562,1.385,0.355,-134.216,18.066,269.226
-0.538,1.528,0.406,-121.704,15.442,231.750
-0.497,1.674,0.359,-76.904,17.639,175.049
-0.427,1.754,0.500,-70.923,5.371,144.775
-0.388,1.781,0.688,-46.997,-1.953,93.689
-0.311,1.695,0.750,-40.161,7.019,67.566
-0.280,1.508,0.724,-26.733,14.221,24.170
-0.215,1.224,0.649,-8.972,14.465,16.174
-0.187,1.195,0.616,14.343,5.249,4.639
-0.132,0.968,0.721,14.099,-2.747,-5.798
-0.110,0.859,0.808,12.634,-7.385,-18.250
-0.037,0.557,0.836,10.742,-3.540,-23.804
-0.005,0.389,0.753,9.888,0.183,-25.757
0.014,0.300,0.720,13.367,-11.230,-13.123
0.013,0.293,0.870,5.249,-25.146,-7.935
0.015,0.253,1.019,-9.460,-29.175,-3.113
0.015,0.257,1.059,-5.432,-19.226,2.930
0.026,0.315,1.010,3.845,-4.822,11.414
0.071,0.306,0.951,2.258,-2.258,12.451
0.075,0.388,0.923,12.939,2.380,26.611
0.035,0.787,0.840,11.719,0.671,26.306
0.043,0.709,0.893,-31.494,-11.292,-13.733
0.092,0.256,0.940,-33.081,-7.141,-17.578
0.097,0.325,0.866,4.944,8.240,19.348
0.067,0.605,0.748,7.996,8.850,24.170
0.064,0.518,0.744,-14.893,-0.305,8.484
0.047,0.366,0.832,-12.756,-2.319,13.184
0.018,0.475,0.858,4.822,0.671,25.513
0.010,0.579,0.849,31.128,10.986,29.175
0.046,0.549,0.759,23.437,11.841,21.606
0.054,0.536,0.739,-2.930,-0.061,15.076
0.053,0.539,0.841,-11.597,-7.324,10.376
0.049,0.485,0.891,-15.564,-7.996,-1.282
0.047,0.413,0.876,-9.644,-5.310,-2.136
0.048,0.414,0.855,2.319,-6.287,1.587
0.046,0.452,0.866,4.211,-9.094,2.869
0.040,0.448,0.900,-2.258,-12.573,1.099
0.016,0.480,0.953,-0.916,-10.376,1.892
0.019,0.489,0.948,0.549,-6.592,1.770
0.039,0.396,0.900,-8.728,-0.977,-3.174
0.036,0.386,0.885,-9.155,-0.305,-0.793
0.029,0.441,0.869,8.423,1.953,10.376
0.041,0.532,0.830,6.226,1.526,9.521
0.053,0.483,0.842,-13.000,-2.075,-3.174
0.062,0.369,0.859,-12.146,0.488,-3.662
0.056,0.389,0.816,7.385,6.042,9.033
0.036,0.502,0.769,12.329,1.953,11.536
0.015,0.530,0.793,15.320,-10.254,1.953
0.017,0.571,0.872,25.330,-12.573,-2.258
0.039,0.574,0.898,17.090,-11.475,-10.620
0.044,0.493,0.883,10.193,-9.888,-15.930
0.041,0.411,0.893,6.165,-10.193,-18.494
-1.213,1.203,2.244,112.610,-229.370,199.585
-1.407,1.630,2.763,96.924,-145.142,108.582
-1.688,1.988,3.047,73.730,-61.157,34.546
-1.869,1.954,2.829,-0.061,89.539,-140.991
-2.012,1.339,2.849,-48.828,117.310,-237.915
-2.037,0.757,3.356,-189.331,162.781,-374.939
-2.232,-0.207,3.624,-200.928,242.126,-389.343
-2.141,-0.466,2.951,-26.428,466.370,-337.402
-1.608,-0.859,0.985,36.133,534.546,-286.743
-1.372,-0.706,0.479,-50.232,498.291,-149.963
-0.727,-0.114,0.266,-157.227,459.656,-116.943
-0.332,-0.173,0.022,-345.459,452.026,-178.894
-0.036,-0.673,-0.835,-321.655,454.834,-210.449
-0.088,-0.684,-0.996,-96.313,350.891,-159.973
0.019,-0.348,-0.646,-44.861,265.625,-109.131
0.136,-0.206,-0.422,-102.295,153.076,-52.429
0.163,-0.059,-0.094,-96.069,134.705,-42.053
0.126,0.216,-0.210,-28.198,143.188,-17.822
0.125,0.354,-0.411,-10.742,146.484,-24.658
0.190,0.431,-0.649,-22.766,124.756,-40.833
0.235,0.325,-0.681,3.296,68.054,-63.782
0.250,0.195,-0.660,31.921,37.415,-52.429
0.248,0.367,-0.498,25.391,-33.325,-7.629
0.253,0.806,-0.348,15.259,-48.889,-7.568
0.231,0.824,-0.549,-1.587,-61.646,-52.612
0.218,0.469,-1.087,-10.437,-91.492,-69.885
0.192,0.249,-1.348,23.804,-200.134,-61.279
-0.080,0.119,-1.697,55.725,-277.954,-44.739
-0.366,0.170,-1.434,43.396,-498.901,-38.635
-0.954,0.072,0.185,32.104,-611.389,-42.480
-1.099,0.153,1.163,33.325,-703.796,-23.010
-0.663,0.099,2.188,34.119,-633.179,-32.227
-0.448,-0.243,1.781,50.171,-388.916,-43.762
-0.552,-0.284,0.809,94.055,-346.436,-7.690
-0.726,-0.080,1.131,82.397,-419.617,34.485
-0.965,0.021,2.869,16.907,-391.540,40.527
-0.766,0.429,3.337,41.809,-282.166,44.373
-0.629,0.547,2.575,124.817,-36.194,7.812
-0.451,0.292,1.157,112.854,-8.789,-18.127
-0.381,0.131,1.289,54.932,-71.289,-32.532
-0.336,0.062,1.723,37.842,-67.932,-23.926
-0.356,0.124,1.663,36.072,-21.423,-2.075
-0.397,0.381,1.757,35.767,-6.409,4.578
-0.345,0.473,1.495,34.363,44.556,-6.287
-0.316,0.398,1.255,34.363,64.209,-20.203
-0.247,0.154,1.232,18.433,55.603,-42.236
-0.210,0.115,1.289,16.052,51.514,-41.992
-0.161,0.255,1.028,23.987,68.115,-25.330
-0.144,0.225,0.915,15.686,66.711,-26.062
-0.135,0.030,1.096,-11.475,39.185,-32.043
-0.147,0.019,1.115,-4.639,44.067,-19.836
-0.110,0.139,0.790,6.348,48.218,-14.587
-0.078,0.163,0.702,0.549,24.719,-13.245
-0.079,0.236,0.891,-7.935,10.254,-12.146
-0.083,0.210,0.919,-14.465,5.798,-13.916
-0.091,0.097,0.899,-19.592,6.531,-15.625
-0.099,0.186,1.005,-22.766,2.563,-4.822
-0.101,0.219,1.123,-19.653,10.010,-8.423
-0.097,0.154,1.055,0.183,26.489,-12.024
-0.099,-0.024,1.124,1.587,23.865,-11.353
-0.100,-0.171,1.280,-8.545,21.362,-5.737
-0.118,-0.410,1.638,-12.512,27.283,2.747
-0.120,-0.498,1.904,-18.494,53.284,18.799
-0.137,-0.783,2.130,-14.221,84.717,27.405
-0.158,-0.907,1.990,-11.658,121.887,41.870
-0.177,-0.951,1.785,-25.879,174.072,89.172
-0.159,-0.773,1.255,-37.903,187.866,114.563
-0.090,-0.661,0.966,-48.950,185.913,142.212
0.052,-0.526,0.524,-40.527,173.096,151.001
0.062,-0.385,0.339,-13.245,147.400,191.528
-0.035,0.125,-0.150,-5.188,130.981,213.989
-0.153,0.606,-0.277,-7.568,58.044,243.225
-0.307,1.832,0.029,-28.503,11.047,226.685
-0.266,1.871,0.302,-108.276,-44.983,94.910
-0.194,0.859,0.708,-129.333,-49.500,49.194
-0.228,0.806,0.857,-52.368,-22.705,84.778
-0.287,1.297,0.750,-12.512,-1.648,94.116
-0.288,1.304,0.658,-10.498,4.211,53.711
-0.216,1.007,0.817,-20.630,-2.441,34.424
-0.167,0.822,0.893,-20.325,-1.160,22.766
-0.102,0.620,0.799,15.869,18.677,23.254
-0.084,0.661,0.759,33.203,21.912,30.090
-0.070,0.657,0.781,33.020,11.658,24.780
-0.069,0.424,1.002,35.461,7.141,22.095
-0.076,0.345,1.086,58.044,15.747,37.292
-0.108,0.326,1.045,66.345,21.484,46.387
-0.089,0.334,1.010,56.946,19.775,47.791
-0.041,0.199,1.045,31.860,12.817,46.997
-0.054,0.206,1.107,49.683,13.794,56.091
-0.062,0.411,0.987,80.017,27.954,56.396
-0.019,0.504,0.846,92.590,41.199,48.706
0.026,0.486,0.781,17.029,27.893,10.559
0.049,0.250,0.972,-36.255,11.780,-2.258
0.062,0.181,1.081,-74.829,12.756,6.775
0.116,0.137,0.962,-68.298,26.611,17.151
0.131,0.137,0.835,-41.748,33.875,40.588
0.075,0.341,0.820,-20.325,24.902,53.589
0.050,0.503,0.874,3.845,11.536,54.321
0.089,0.516,0.826,2.441,10.925,37.109
0.098,0.402,0.783,1.709,9.460,20.264
0.118,0.374,0.719,-14.099,-1.587,15.625
0.138,0.385,0.622,-39.734,-4.578,15.625
0.127,0.330,0.575,-82.397,-29.053,1.343
0.050,0.192,0.845,-75.500,-47.913,2.747
0.031,0.179,0.997,-51.514,-48.462,27.527
-0.055,0.259,0.915,-48.035,-33.081,42.358
-0.110,0.373,0.838,-75.073,-34.790,57.495
-0.056,0.582,0.933,-119.202,-46.814,56.458
-0.009,0.585,0.953,-210.999,-27.161,53.772
-0.014,0.564,0.861,-219.727,-4.456,60.913
-0.021,0.622,0.879,-205.872,13.794,71.838
-0.032,0.691,0.940,-136.902,38.879,75.928
-0.048,0.826,0.933,-129.333,54.504,68.359
-0.084,0.816,0.834,-153.809,86.670,39.063
-0.106,0.714,0.596,-164.734,94.299,32.288
-0.095,0.748,0.495,-221.619,81.055,35.828
-0.060,0.910,0.345,-247.559,62.378,34.119
-0.041,0.953,0.389,-234.558,39.856,26.245
0.006,0.877,0.684,-60.669,9.277,6.409
-0.694,1.764,1.547,-14.709,-68.054,82.886
-0.824,2.000,1.858,-40.283,-46.204,12.024
-1.043,2.069,2.374,-65.674,-19.104,-43.213
-1.091,1.905,2.410,-36.316,71.350,-157.898
-1.103,1.420,2.124,29.419,114.563,-203.430
-1.008,1.101,1.954,129.700,171.082,-269.348
-0.850,0.420,1.675,120.117,192.261,-283.203
-0.860,0.314,1.597,-113.708,230.408,-260.864
-0.691,0.348,1.325,-252.624,256.409,-264.648
-0.541,0.101,0.941,-389.832,304.199,-322.266
-0.273,-0.233,0.047,-391.907,292.908,-316.528
-0.026,-0.109,-0.250,-382.996,253.845,-290.100
0.223,-0.103,-0.411,-362.122,153.198,-277.283
0.327,-0.422,-0.250,-316.223,111.450,-269.897
0.326,-0.434,-0.153,-158.630,90.393,-179.749
0.399,-0.052,-0.247,-150.085,95.581,-133.057
0.461,0.077,-0.342,-218.872,78.308,-108.459
0.449,-0.050,-0.467,-187.500,57.922,-107.117
0.443,-0.057,-0.507,-61.035,24.719,-43.640
0.445,0.401,-0.443,-44.861,5.859,-2.625
0.452,0.712,-0.297,-64.331,-18.188,18.555
0.477,0.863,-0.138,-76.782,-46.997,-14.343
0.511,0.687,0.026,-58.044,-42.236,-37.109
0.525,0.582,0.035,-0.732,-19.836,-37.231
0.515,0.567,-0.030,28.137,-13.306,-24.719
0.507,0.657,-0.084,48.584,-17.090,-10.559
0.536,0.633,-0.200,54.199,-24.475,-19.348
0.531,0.450,-0.263,63.232,-39.368,-29.114
0.466,0.234,-0.432,65.796,-48.401,-11.963
0.426,0.287,-0.566,57.495,-60.303,13.184
0.400,0.337,-0.695,6.409,-104.736,44.189
0.269,0.188,-0.835,-17.517,-135.986,49.316
0.136,0.090,-0.838,70.374,-198.914,77.148
-0.069,-0.075,-0.851,161.499,-228.699,94.604
-0.183,-0.089,-0.828,316.711,-300.232,114.624
-0.594,0.018,-0.623,373.413,-341.614,114.136
-0.665,0.106,-0.494,343.323,-386.719,109.924
-0.713,0.105,-0.301,58.350,-479.187,91.003
-0.877,-0.027,0.451,-32.227,-509.399,94.482
-0.944,-0.117,0.860,49.255,-499.145,124.329
-1.103,-0.092,1.333,115.967,-466.919,149.292
-1.177,0.294,1.565,136.841,-410.400,194.458
-1.104,1.058,2.423,97.107,-389.404,177.856
-0.992,1.084,2.757,42.114,-268.494,94.116
-0.714,0.810,1.984,67.505,-167.786,59.875
-0.621,0.535,1.265,91.248,-97.046,32.104
-0.584,0.290,1.015,67.505,-117.310,23.743
-0.595,0.488,1.634,57.678,-135.559,41.931
-0.619,0.758,1.839,39.063,-94.421,48.706
-0.605,1.005,1.953,28.381,-61.218,31.738
-0.583,0.960,1.814,55.420,16.602,-9.583
-0.559,0.766,1.204,71.899,40.100,-23.926
-0.518,0.660,1.112,71.655,39.001,-34.241
-0.484,0.577,1.252,37.354,11.597,-41.443
-0.429,0.523,1.517,31.677,17.029,-38.574
-0.429,0.554,1.488,36.377,45.166,-31.067
-0.439,0.662,1.580,37.964,53.284,-33.203
-0.439,0.594,1.606,44.739,65.613,-41.260
-0.447,0.435,1.358,74.829,102.783,-49.438
-0.430,0.484,1.360,79.102,108.032,-45.471
-0.403,0.530,1.533,57.556,107.117,-48.096
-0.326,0.329,1.652,48.889,127.441,-53.589
-0.295,0.198,1.475,49.072,176.636,-44.556
-0.254,0.193,1.097,54.871,184.998,-33.691
-0.167,0.206,0.880,63.538,184.814,-27.710
-0.033,0.121,0.688,17.761,154.907,-33.081
0.154,-0.176,0.919,-39.673,124.084,-30.823
0.197,-0.266,1.198,-125.671,100.769,-10.681
0.175,-0.463,1.421,-147.705,111.633,-3.052
0.141,-0.626,1.422,-147.766,135.742,15.259
0.044,-0.816,1.314,-129.639,146.790,38.879
0.023,-0.765,1.134,-53.467,168.579,101.929
-0.026,-0.523,0.736,-29.114,166.443,127.686
-0.057,-0.371,0.710,-26.001,152.771,147.461
-0.092,-0.234,0.669,-40.527,140.381,178.406
-0.272,0.396,0.141,-41.992,141.907,199.524
-0.355,0.906,-0.076,-79.285,97.290,205.566
-0.403,1.381,0.055,-104.370,66.040,174.316
-0.383,1.382,0.075,-78.918,53.894,119.202
-0.326,1.490,-0.053,-49.011,52.734,106.934
-0.331,1.567,0.030,-32.959,42.542,96.130
-0.312,1.530,0.332,-25.757,24.292,65.186
-0.296,1.368,0.435,-17.395,25.818,46.143
-0.285,1.224,0.478,28.198,40.894,26.611
-0.212,0.996,0.391,50.537,45.593,19.714
-0.156,0.831,0.403,55.969,29.541,5.005
-0.051,0.557,0.681,54.260,18.433,4.211
-0.018,0.460,0.841,60.120,16.296,12.085
0.025,0.392,0.959,58.105,24.048,18.982
0.044,0.422,0.870,42.786,37.964,27.771
0.060,0.484,0.732,28.015,32.898,27.100
0.051,0.507,0.796,-6.470,14.099,23.621
0.045,0.541,0.811,-10.559,15.076,23.010
0.048,0.566,0.749,-5.188,18.372,23.560
0.054,0.593,0.744,-1.343,13.123,24.902
0.048,0.602,0.824,-5.493,12.756,25.085
0.037,0.617,0.815,-0.854,24.475,28.809
0.046,0.654,0.699,3.296,29.053,28.687
0.051,0.655,0.640,-4.578,25.024,20.935
0.086,0.567,0.608,-14.221,18.616,16.479
0.089,0.533,0.652,-23.254,12.146,15.686
0.080,0.577,0.701,-20.325,6.653,21.057
0.119,0.560,0.732,-16.724,6.348,17.029
0.119,0.493,0.730,-9.644,5.859,17.822
0.108,0.647,0.657,-4.211,4.944,24.231
0.123,0.656,0.641,-25.879,-8.606,14.648
0.125,0.501,0.802,-35.095,-15.076,12.878
0.115,0.522,0.856,-8.362,-3.723,28.381
0.074,0.654,0.748,7.996,5.005,33.508
0.054,0.746,0.696,14.526,2.747,30.884
0.084,0.737,0.714,1.709,-5.249,19.836
0.107,0.589,0.758,-15.320,-14.771,4.211
0.094,0.472,0.860,-11.902,-13.672,11.475
0.073,0.574,0.880,4.944,-1.282,29.297
0.067,0.638,0.760,6.226,4.211,26.855
0.060,0.582,0.726,13.000,0.122,22.827
0.031,0.651,0.763,21.606,-2.625,26.978
0.029,0.693,0.778,11.780,-6.531,22.339
0.025,0.581,0.849,-3.784,-9.888,17.517
-1.111,1.621,1.211,61.951,-134.949,261.353
-1.234,1.954,1.343,55.054,-120.728,164.612
-1.279,1.761,1.556,26.184,-101.685,86.487
-1.290,1.504,1.611,-16.602,-52.490,-10.986
-1.313,1.435,1.767,-28.137,-31.189,-31.006
-1.373,1.608,1.831,-34.729,20.874,-81.055
-1.528,1.922,1.962,-47.241,50.842,-126.892
-1.542,1.906,2.124,-99.670,116.699,-259.399
-1.656,1.723,2.245,-90.820,171.936,-333.862
-1.745,1.384,1.882,-22.522,316.162,-483.032
-1.653,0.329,0.641,13.977,367.737,-527.771
-1.266,-0.218,0.045,61.951,374.573,-515.686
-0.366,-1.073,-0.214,22.705,320.679,-460.754
-0.166,-1.067,0.269,-97.412,210.815,-280.762
-0.113,-0.406,0.636,-108.826,228.027,-207.642
-0.014,-0.294,0.058,-51.392,301.941,-175.110
0.196,-0.424,-0.854,-16.113,279.907,-173.340
0.247,-0.329,-0.783,-58.960,156.189,-120.483
0.375,-0.096,-0.376,-60.974,110.596,-100.525
0.351,-0.055,-0.220,-32.959,73.425,-75.684
0.380,0.115,-0.085,-26.794,67.078,-64.026
0.437,0.127,-0.199,-27.405,55.359,-62.195
0.471,0.083,-0.350,-46.692,33.752,-57.251
0.479,0.136,-0.299,-50.720,-13.733,-28.015
0.444,0.306,-0.315,-24.231,-27.100,-12.878
0.415,0.447,-0.326,-3.723,-60.791,6.775
0.336,0.628,-0.234,-17.273,-80.750,2.563
0.310,0.583,-0.289,-35.217,-108.765,-17.822
0.255,0.286,-0.782,-24.536,-126.648,-17.761
0.207,0.160,-1.051,13.428,-213.135,13.184
-0.046,0.128,-1.204,48.218,-278.503,31.555
-0.237,0.190,-1.033,98.633,-346.252,42.847
-0.645,0.077,-0.341,196.716,-453.552,33.813
-0.829,0.001,0.088,187.195,-493.408,30.945
-0.952,0.076,0.511,84.473,-546.997,46.692
-0.920,0.151,1.162,54.382,-543.091,42.114
-0.869,-0.119,1.241,77.576,-473.267,28.015
-0.894,-0.369,1.036,104.492,-440.552,49.988
-1.009,-0.145,1.185,88.074,-428.406,103.638
-1.123,0.159,2.159,66.223,-416.809,108.154
-1.131,0.213,2.547,79.468,-313.721,103.943
-1.087,0.602,2.684,106.262,-240.662,97.412
-1.026,0.757,2.489,122.131,-103.699,39.612
-0.858,0.491,1.615,107.117,-55.359,2.136
-0.768,0.323,1.358,50.476,-38.086,-29.785
-0.660,0.134,1.536,24.658,-40.344,-30.945
-0.640,0.105,1.544,27.588,-7.751,-21.973
-0.634,0.113,1.320,31.128,5.371,-16.113
-0.654,0.217,1.428,23.254,5.127,-9.094
-0.688,0.340,1.673,-3.296,14.709,-8.484
-0.752,0.392,1.826,-5.432,41.260,-15.320
-0.769,0.442,1.754,2.808,87.891,-28.076
-0.759,0.483,1.786,5.798,101.624,-41.565
-0.729,0.381,1.789,17.273,140.259,-70.068
-0.682,0.268,1.473,25.146,162.903,-75.012
-0.599,0.213,1.157,23.315,178.589,-83.130
-0.315,-0.058,0.921,2.014,160.889,-82.214
-0.219,-0.096,1.119,-60.181,128.479,-54.749
-0.178,0.131,1.486,-97.168,133.972,-44.434
-0.186,0.163,1.525,-136.292,168.762,-63.171
-0.062,-0.305,1.187,-103.882,192.200,-76.721
0.049,-0.628,0.893,-5.981,210.083,-51.147
0.156,-0.881,0.691,12.573,191.162,-16.846
0.189,-0.877,0.825,-9.460,141.357,39.368
0.152,-1.002,1.081,-50.537,131.653,52.917
0.112,-1.138,1.005,-80.444,134.705,66.162
0.006,-1.117,0.741,-41.199,140.625,128.479
-0.056,-0.868,0.721,2.747,132.507,175.964
-0.220,-0.353,0.620,57.129,117.615,251.831
-0.357,0.084,0.594,70.862,106.750,282.593
-0.483,0.698,0.544,46.021,82.031,307.678
-0.604,1.505,0.365,-24.292,63.232,274.963
-0.611,1.487,0.420,-154.358,23.193,177.673
-0.501,1.372,0.565,-153.564,25.574,150.208
-0.423,1.331,0.445,-75.439,51.392,115.540
-0.411,1.298,0.245,-43.091,45.288,102.539
-0.408,1.359,0.422,-25.940,10.620,70.557
-0.338,1.147,0.770,-27.222,10.559,47.546
-0.287,0.980,0.764,-18.921,29.358,20.142
-0.198,0.746,0.641,-9.277,33.752,15.259
-0.170,0.705,0.577,14.648,29.785,15.564
-0.104,0.730,0.598,18.250,19.287,13.672
-0.068,0.688,0.699,-0.244,-1.892,-3.296
-0.027,0.481,0.805,-5.371,-2.319,-7.935
-0.016,0.473,0.778,3.418,3.479,1.404
0.024,0.517,0.780,1.221,1.160,2.380
0.042,0.460,0.827,-12.024,-6.226,-1.343
0.003,0.569,0.873,-7.690,-6.104,4.272
-0.002,0.672,0.862,-9.521,-6.409,-0.488
0.060,0.458,0.967,-24.963,-8.362,-10.803
0.098,0.317,1.027,-36.194,6.775,3.235
0.053,0.530,0.863,-20.874,20.203,22.461
0.037,0.760,0.749,9.949,19.043,16.357
0.098,0.542,0.798,-5.981,7.751,-8.362
0.125,0.316,0.859,-24.841,5.127,-11.292
0.090,0.355,0.843,-15.686,11.719,9.399
0.054,0.543,0.802,6.592,16.174,32.776
0.048,0.669,0.771,-2.380,9.888,22.278
0.067,0.551,0.840,-23.071,0.366,5.310
0.069,0.464,0.922,-19.226,1.221,3.052
0.050,0.648,0.860,11.902,13.000,15.198
0.055,0.731,0.761,30.945,18.433,8.606
0.058,0.620,0.774,15.625,8.301,-2.380
0.056,0.592,0.908,-10.132,-4.578,-7.629
0.058,0.557,0.973,-9.338,3.967,-8.545
0.067,0.519,0.854,13.916,20.813,-5.554
0.097,0.492,0.733,14.709,16.113,-2.625
0.100,0.467,0.788,-1.465,1.587,-0.427
0.071,0.498,0.855,1.343,2.441,2.869
0.069,0.541,0.826,8.667,6.409,5.798
0.079,0.523,0.784,2.625,8.789,0.610
0.076,0.459,0.744,-3.784,6.348,1.526
0.071,0.532,0.738,-0.916,-0.305,8.362
0.092,0.500,0.749,-3.784,-4.211,3.235
0.095,0.411,0.784,-11.658,-9.033,4.456
0.063,0.512,0.851,-8.545,-6.958,14.465
0.052,0.630,0.862,0.610,0.732,15.381
0.085,0.533,0.833,-1.587,4.089,4.639
0.097,0.424,0.800,-5.615,7.019,4.700
-0.966,0.939,1.194,119.995,-153.931,219.788
-1.056,1.031,1.301,72.021,-169.861,150.085
-1.355,1.133,1.679,47.546,-171.326,111.023
-1.547,1.335,2.015,-6.226,-144.958,56.702
-2.079,2.283,2.914,-30.457,-111.938,21.912
-2.287,2.615,3.243,-21.912,44.067,-166.382
-2.566,2.160,3.013,-7.568,177.734,-301.514
-2.725,1.666,2.332,23.865,431.030,-504.822
-2.448,0.527,0.749,28.076,484.619,-575.684
-1.926,-0.434,0.320,-132.202,421.143,-643.738
-0.676,-2.133,0.293,-201.294,359.985,-570.129
-0.225,-1.987,0.426,-150.085,328.186,-249.023
-0.047,-0.419,0.103,-74.890,352.234,-120.483
-0.030,0.236,-0.229,-55.847,353.332,-69.031
0.063,0.377,-0.476,-142.700,310.913,-119.385
0.156,0.071,-0.391,-251.831,202.942,-209.351
0.362,-0.445,-0.194,-197.937,164.978,-203.918
0.420,-0.418,-0.120,-118.713,142.090,-161.560
0.407,0.268,0.159,-39.978,114.807,-52.979
0.433,0.535,0.180,-39.856,113.220,-36.560
0.493,0.373,-0.177,-64.392,126.343,-84.595
0.539,0.133,-0.323,-69.214,117.737,-106.262
0.586,-0.030,-0.385,-55.908,74.890,-91.736
0.643,-0.027,-0.394,-42.847,52.551,-67.627
0.647,0.052,-0.430,-31.677,11.902,-23.193
0.588,0.229,-0.464,-24.597,-14.648,-4.883
0.556,0.354,-0.337,-32.959,-77.698,22.156
0.528,0.454,-0.285,-46.875,-92.163,25.146
0.504,0.405,-0.495,-56.641,-111.755,31.799
0.325,0.467,-0.796,-47.852,-141.418,42.175
0.238,0.468,-0.794,65.857,-215.759,51.208
0.009,0.239,-0.958,130.371,-246.460,51.392
-0.157,0.137,-1.135,255.188,-332.825,54.199
-0.597,0.197,-1.106,322.937,-403.686,50.171
-0.894,0.401,-0.767,461.365,-557.434,-6.348
-1.246,0.179,0.103,417.908,-606.201,-74.951
-1.321,-0.304,0.476,233.215,-628.723,-129.456
-1.218,-1.045,1.095,-84.229,-614.807,-81.970
-1.190,-0.850,1.474,-98.083,-593.323,-0.305
-1.250,-0.222,2.432,-34.363,-525.391,106.384
-1.271,0.007,2.892,10.071,-394.714,122.742
-1.253,0.689,3.091,53.772,-295.288,115.417
-1.181,0.874,2.634,104.980,-186.157,87.219
-0.970,0.426,1.321,154.053,-42.358,-4.639
-0.843,0.168,1.193,146.667,-39.612,-28.564
-0.752,0.031,1.493,87.280,-66.833,-21.851
-0.673,0.223,2.100,47.852,-47.363,-8.850
-0.652,0.317,1.964,18.250,38.757,-12.329
-0.639,0.247,1.319,24.414,65.918,-20.447
-0.613,0.158,1.132,34.485,65.063,-28.809
-0.574,0.055,1.297,30.151,53.345,-24.536
-0.587,0.141,1.532,30.518,56.030,-12.756
-0.628,0.312,1.735,36.377,75.195,-15.686
-0.632,0.277,1.684,33.936,120.117,-35.156
-0.515,0.027,1.293,24.780,136.780,-43.030
-0.444,-0.085,1.187,9.216,140.991,-44.556
-0.399,-0.112,1.326,-35.950,125.977,-33.752
-0.370,-0.073,1.699,-43.579,136.841,-30.518
-0.355,-0.124,1.627,-33.447,188.782,-33.875
-0.253,-0.417,1.250,-27.954,205.383,-33.386
-0.158,-0.566,1.134,-28.625,210.815,-12.512
0.043,-0.910,0.962,-36.804,209.534,3.967
0.097,-1.151,0.823,-44.617,198.608,51.453
0.152,-1.537,0.607,-40.283,184.570,91.370
0.142,-1.581,0.584,-15.442,154.419,195.251
0.034,-1.315,0.592,-2.319,145.386,249.023
-0.047,-1.106,0.531,21.912,139.221,336.243
-0.359,-0.653,0.289,28.564,129.333,372.803
-0.620,-0.085,0.220,53.040,77.209,446.594
-0.889,1.697,0.473,56.396,39.673,444.336
-0.770,2.082,0.647,20.874,8.362,377.075
-0.663,1.771,0.791,-116.333,-21.606,154.968
-0.616,0.952,1.141,-130.981,-17.883,111.206
-0.593,1.097,1.113,-54.321,30.151,116.638
-0.556,1.481,0.699,-38.696,41.748,96.741
-0.508,1.423,0.696,-55.786,19.470,21.423
-0.317,0.954,0.852,-44.189,18.311,-6.958
-0.221,0.739,0.771,16.174,38.574,-19.043
-0.084,0.521,0.603,32.349,37.170,-14.221
-0.068,0.478,0.673,29.602,25.269,-8.972
-0.041,0.511,0.903,9.766,4.517,-1.526
-0.015,0.464,0.887,4.761,6.409,-5.432
0.011,0.390,0.830,-7.446,5.127,-10.620
0.046,0.348,0.917,-18.799,-3.174,-8.362
0.036,0.342,1.048,-33.447,-6.958,-6.653
0.022,0.375,1.151,-23.743,3.845,-4.150
0.056,0.360,1.033,-0.610,29.785,-3.540
0.123,0.234,0.784,-3.906,29.480,-2.625
0.103,0.274,0.789,-7.324,11.902,11.902
0.073,0.467,0.871,-5.981,6.836,13.611
0.082,0.395,0.872,-20.020,3.235,-1.831
0.117,0.223,0.858,-19.226,2.563,0.610
0.126,0.247,0.839,-14.038,3.052,10.742
0.062,0.419,0.879,-19.409,-1.221,28.076
0.049,0.474,0.926,-24.719,-4.333,28.748
0.063,0.441,0.915,-42.114,1.282,15.808
0.101,0.248,0.789,-56.885,2.319,15.198
0.063,0.271,0.787,-65.308,-9.094,40.039
-0.047,0.784,0.919,-36.499,-12.329,47.852
-0.031,0.844,0.929,-22.888,-10.803,-1.282
0.004,0.402,0.959,-33.936,-12.756,-24.597
0.007,0.351,1.009,4.883,-3.906,-4.639
0.024,0.553,0.923,20.325,6.592,5.127
0.017,0.572,0.823,13.794,8.484,-4.822
0.030,0.564,0.833,3.235,-1.770,-10.864
0.046,0.515,0.913,-21.179,-11.353,-23.804
0.033,0.430,0.915,-15.076,-6.042,-22.583
0.052,0.477,0.860,9.888,0.061,-13.672
0.107,0.375,0.835,-2.625,-4.333,-18.372
0.092,0.306,0.906,-19.226,-10.193,-20.203
0.032,0.516,1.020,-19.958,-8.240,-5.066
0.033,0.579,0.950,-9.766,1.587,-5.432
0.029,0.542,0.899,-44.373,3.540,-23.437
0.059,0.434,1.018,-66.406,0.061,-28.198
0.097,0.370,1.008,-33.630,17.761,-24.963
0.155,0.309,0.768,-8.606,26.428,-16.113
0.148,0.363,0.730,-4.578,13.916,1.465
0.127,0.514,0.878,-9.033,6.104,2.869
0.139,0.483,0.868,-9.338,10.864,-5.249
-0.974,1.133,1.277,103.455,-175.537,235.168
-1.215,1.626,1.647,73.853,-183.899,185.791
-1.456,2.542,2.448,28.748,-169.739,112.671
-1.536,2.654,2.662,-73.853,-68.542,-116.455
-1.675,1.920,2.258,-78.247,7.263,-227.661
-1.669,1.349,1.994,-68.237,83.191,-346.130
-1.701,0.851,2.316,-93.811,84.290,-357.544
-1.696,0.767,2.551,-116.699,142.700,-368.713
-1.719,0.622,2.418,-91.797,201.477,-367.798
-1.605,0.546,2.244,-80.078,310.486,-384.582
-1.178,-0.333,1.617,-136.719,354.309,-405.701
-1.043,-0.626,1.243,-252.258,394.531,-364.380
-0.596,-0.466,0.404,-238.708,398.926,-328.857
-0.287,-0.617,-0.137,-123.962,382.202,-292.175
0.060,-0.884,-0.703,-66.650,340.820,-252.624
0.146,-0.663,-0.527,27.161,227.966,-127.441
0.207,0.035,0.024,45.898,199.707,-90.820
0.212,0.173,0.051,-41.626,204.712,-105.347
0.288,-0.000,-0.240,-129.272,204.834,-129.883
0.311,-0.184,-0.411,-179.932,188.904,-140.686
0.335,-0.243,-0.759,-124.512,170.959,-117.432
0.379,-0.126,-0.866,-35.889,87.585,-51.025
0.436,0.227,-0.776,-70.679,31.372,-29.785
0.452,0.287,-0.654,-95.703,-16.113,-22.522
0.466,0.106,-0.635,-45.654,-61.646,-19.897
0.463,-0.013,-0.807,9.766,-72.876,-5.981
0.314,0.107,-1.235,126.587,-119.995,59.753
0.154,0.475,-1.135,130.554,-174.927,95.520
0.013,0.901,-0.754,-17.578,-310.425,87.646
-0.075,0.859,-0.178,-67.688,-342.529,39.246
-0.069,0.452,-0.293,-0.549,-344.665,-18.799
-0.114,-0.086,-0.739,93.506,-360.107,-7.812
-0.269,-0.107,-0.740,190.491,-455.017,30.762
-0.851,-0.072,-0.246,170.410,-514.099,41.382
-1.085,-0.062,0.202,98.755,-604.614,53.772
-1.129,-0.403,1.164,77.820,-604.797,54.993
-1.080,-0.554,1.252,108.948,-508.789,98.694
-1.061,-0.401,0.889,151.428,-473.206,123.108
-1.156,-0.451,1.094,134.216,-476.624,142.700
-1.433,-0.111,2.159,111.877,-467.773,166.321
-1.452,0.364,2.550,138.977,-371.826,170.898
-1.281,0.806,2.548,148.376,-293.457,127.014
-1.158,0.629,2.195,126.770,-147.461,27.405
-0.947,0.050,1.379,100.281,-109.131,5.554
-0.907,-0.018,1.281,48.889,-97.778,16.724
-0.916,0.129,1.627,43.396,-92.712,23.437
-0.937,0.242,1.820,14.526,-45.837,18.311
-1.002,0.399,2.257,-18.555,-11.902,8.118
-1.109,0.528,2.363,-25.757,96.130,-24.780
-1.092,0.373,1.001,12.024,161.133,-57.129
-0.895,0.026,0.293,32.349,181.274,-86.670
-0.638,-0.186,1.130,-27.954,71.655,-75.745
-0.681,0.141,2.000,-79.712,36.194,-48.218
-0.766,0.568,2.540,-136.353,121.826,-51.392
-0.989,0.662,2.146,-101.074,208.008,-91.431
-1.013,0.302,1.224,54.932,331.177,-144.775
-0.535,-0.256,-0.070,90.393,304.260,-129.883
-0.326,-0.198,0.405,15.747,148.315,-59.998
-0.316,0.278,2.160,-27.466,129.150,-40.222
-0.412,0.320,2.343,-26.062,259.399,-57.068
-0.412,-0.255,0.962,26.245,330.322,-72.754
-0.252,-0.590,0.160,141.541,316.223,-39.063
0.181,-0.640,-0.014,133.606,239.197,1.282
0.300,-0.656,0.521,-51.025,97.290,29.236
0.290,-1.261,1.609,-151.245,79.895,27.222
0.173,-1.636,1.731,-207.031,103.088,41.321
0.064,-1.952,1.469,-170.349,203.857,132.507
0.060,-2.183,0.329,-118.774,234.253,202.942
-0.038,-1.915,0.026,-14.160,194.885,373.901
-0.582,-0.457,0.226,48.523,162.048,453.979
-0.923,0.512,0.384,94.910,118.469,523.804
-1.145,2.050,0.424,53.650,95.886,487.671
-1.114,2.245,0.394,-92.896,40.955,311.829
-1.043,2.600,0.304,-111.450,21.667,238.464
-0.872,2.668,0.294,-84.351,-16.052,81.421
-0.510,1.602,0.829,-85.510,-33.142,10.498
-0.398,1.220,0.964,-21.912,8.972,-8.118
-0.285,1.096,0.545,18.982,34.485,-1.465
-0.252,1.018,0.485,35.889,34.058,-6.958
-0.183,0.960,0.739,17.334,4.089,-26.245
-0.106,0.738,0.777,2.686,1.160,-42.786
-0.031,0.392,0.823,-27.771,-2.441,-57.129
0.041,0.229,0.991,-19.897,0.977,-37.537
0.071,0.362,0.920,21.667,26.367,-7.690
0.127,0.288,0.636,20.386,27.588,-7.385
0.153,0.188,0.649,-2.563,3.479,7.568
0.095,0.352,0.799,-3.723,-2.686,24.475
0.044,0.626,0.796,13.855,-3.296,33.569
0.068,0.605,0.797,4.639,-9.338,11.108
0.100,0.330,0.872,-19.653,-16.541,-7.385
0.132,0.244,0.882,-4.639,-6.653,12.878
0.104,0.417,0.773,40.344,11.292,45.410
0.071,0.665,0.637,44.495,6.287,41.260
0.078,0.589,0.694,17.151,-14.343,15.991
0.078,0.403,0.868,12.451,-15.930,15.869
0.001,0.593,0.935,31.128,-4.578,35.278
-0.048,1.059,0.878,36.743,3.845,20.447
0.027,0.798,0.770,-11.169,1.465,-52.002
0.139,0.074,0.783,-25.330,-7.751,-54.138
0.126,0.148,0.824,20.020,-8.301,5.737
0.073,0.626,0.799,34.363,-6.226,17.212
0.080,0.564,0.824,8.362,-16.357,-8.057
0.104,0.232,0.967,-2.747,-18.921,-8.301
0.077,0.295,1.006,9.460,-8.362,22.949
-0.003,0.724,0.944,13.245,-2.808,27.832
0.006,0.714,0.906,1.526,-2.747,14.648
0.056,0.362,0.968,-35.645,-11.292,-14.648
0.065,0.342,0.985,-35.889,-8.728,-7.202
0.049,0.419,0.935,-9.583,5.615,15.808
0.006,0.635,0.829,1.587,5.249,17.517
0.020,0.633,0.855,-10.010,-5.676,-2.991
0.043,0.416,0.932,-18.616,-6.409,-10.071
0.035,0.441,0.937,14.465,4.395,5.005
0.054,0.632,0.826,33.813,10.498,6.104
0.074,0.527,0.757,14.771,6.836,-15.930
0.074,0.354,0.790,2.686,-0.488,-13.062
0.057,0.474,0.841,0.427,-6.104,4.944
0.066,0.573,0.865,-2.197,-4.333,-1.099
0.089,0.432,0.857,-7.690,-2.563,-12.085
-1.156,1.177,1.674,41.504,-269.409,226.685
-1.315,1.268,2.028,-7.263,-231.140,137.634
-1.536,1.784,2.306,1.587,-176.880,99.182
-1.643,2.101,2.144,44.800,-46.570,-26.611
-2.135,2.329,1.707,39.063,-8.850,-113.708
-2.396,2.386,1.834,-12.756,4.456,-295.166
-2.617,1.630,2.900,-57.678,20.996,-388.733
-2.585,0.997,3.253,-109.802,174.377,-491.699
-2.439,0.284,2.511,-99.304,286.011,-494.263
-2.338,0.148,1.752,-120.789,408.264,-471.252
-1.714,-0.318,1.194,-173.462,396.545,-475.342
-1.089,-1.216,1.119,-296.082,389.282,-480.347
-0.798,-1.425,0.406,-219.543,440.857,-433.105
-0.224,-0.964,-1.171,86.914,491.943,-231.262
-0.033,-0.402,-1.307,79.163,426.941,-132.629
0.129,0.246,-0.575,-86.914,227.112,-83.984
0.167,0.218,-0.311,-177.429,168.762,-153.687
0.240,-0.220,-0.561,-140.015,178.162,-173.889
0.284,-0.321,-0.684,-67.932,138.916,-141.724
0.398,-0.232,-0.601,-59.326,98.389,-113.525
0.442,-0.180,-0.575,-7.629,37.048,-66.895
0.451,-0.054,-0.525,31.982,9.583,-42.175
0.453,0.142,-0.356,-16.968,-49.194,-9.460
0.474,0.358,0.051,-78.613,-63.110,-18.433
0.482,0.244,0.033,-139.587,-46.631,-43.396
0.480,-0.084,-0.512,-101.685,-37.659,-31.372
0.416,-0.046,-0.961,51.453,-78.430,34.729
0.331,0.080,-1.089,180.481,-170.227,75.500
0.061,0.254,-1.422,235.535,-223.022,71.167
-0.153,0.311,-1.496,222.717,-373.718,32.837
-0.657,0.260,-1.032,154.968,-465.027,6.287
-0.921,0.109,-0.572,45.959,-610.046,-17.273
-1.327,-0.010,0.561,32.776,-646.545,3.113
-1.365,0.021,0.933,74.280,-610.962,48.767
-1.351,-0.198,1.072,90.759,-568.298,57.800
-1.400,-0.328,1.146,116.150,-522.583,94.604
-1.468,-0.149,1.983,121.765,-514.771,121.643
-1.476,0.052,2.610,114.990,-457.764,146.362
-1.355,0.691,3.474,110.168,-382.874,137.329
-1.187,0.858,3.164,131.897,-117.493,50.293
-0.902,0.404,1.264,132.080,-17.700,3.662
-0.767,0.186,0.806,109.863,-1.038,-18.738
-0.612,-0.010,1.375,19.836,-80.139,-20.203
-0.613,-0.008,1.698,-7.629,-83.496,-10.986
-0.659,0.102,1.901,-29.480,-26.367,11.841
-0.815,0.442,1.961,-32.471,13.916,11.780
-0.833,0.464,1.572,7.385,93.689,-15.015
-0.694,0.372,0.753,21.423,96.741,-28.198
-0.613,0.285,0.831,-0.671,34.973,-44.006
-0.594,0.272,1.768,-19.958,16.418,-41.382
-0.610,0.376,2.080,-44.128,71.106,-42.114
-0.667,0.353,1.859,-31.433,120.483,-53.772
-0.661,0.218,1.548,18.555,179.993,-74.097
-0.535,-0.101,1.232,25.269,180.237,-74.646
-0.475,-0.165,1.364,26.855,166.260,-47.058
-0.478,0.010,2.099,1.404,172.180,-31.433
-0.542,0.089,2.485,-102.722,245.361,-33.203
-0.724,-0.167,2.265,-139.893,315.125,-47.974
-0.664,-0.511,1.524,-72.632,435.242,-56.824
-0.225,-1.083,0.096,-18.250,426.880,-31.860
-0.059,-1.062,0.013,7.324,289.673,70.618
0.038,-0.345,0.488,-9.277,237.732,118.286
0.137,-0.079,0.585,-64.880,218.262,108.582
0.287,-0.625,0.254,-74.829,224.243,71.533
0.319,-1.126,-0.023,-16.479,202.393,93.018
0.217,-1.319,-0.299,37.720,165.222,167.603
0.041,-0.832,-0.159,39.001,56.396,326.294
-0.332,0.283,0.479,-7.019,12.451,358.093
-0.554,0.616,0.723,-33.325,-4.944,360.229
-0.823,1.307,0.891,-13.733,5.920,354.675
-0.900,1.697,0.949,-33.752,29.358,297.546
-0.967,2.281,0.815,-35.217,48.523,244.629
-0.883,2.442,0.468,-6.042,69.031,183.899
-0.510,1.967,0.040,14.709,45.349,43.701
-0.388,1.551,0.183,-16.907,3.540,-7.629
-0.306,1.379,0.518,-17.151,-38.025,-23.621
-0.278,1.315,0.650,-3.052,-39.429,-30.457
-0.109,0.783,0.884,3.845,-31.616,-67.322
-0.028,0.457,0.898,6.592,-20.203,-76.538
0.016,0.354,0.771,34.729,3.174,-47.241
0.043,0.437,0.753,39.612,4.333,-30.762
0.082,0.375,0.792,5.066,-7.385,-34.119
0.123,0.186,0.815,5.920,-7.324,-29.053
0.124,0.310,0.758,30.579,-7.385,-4.150
0.160,0.347,0.851,15.686,-15.991,-8.118
0.189,0.184,0.943,-11.169,-15.808,-6.104
0.145,0.255,0.881,-2.014,-6.165,14.282
0.090,0.538,0.774,27.466,-1.038,37.292
0.100,0.673,0.742,17.578,-10.925,20.264
0.143,0.447,0.842,-10.376,-23.193,-3.662
0.157,0.271,0.860,0.000,-14.954,11.414
0.088,0.444,0.786,18.311,-6.104,33.325
-0.011,0.945,0.827,36.987,-10.742,45.959
0.034,0.852,0.891,22.583,-15.076,20.874
0.092,0.330,0.899,-5.432,-8.972,-17.212
0.075,0.374,0.855,12.268,-2.502,-0.549
0.076,0.529,0.789,41.199,0.732,23.743
0.056,0.517,0.698,33.508,-5.981,15.625
-0.008,0.571,0.832,15.747,-26.001,14.343
0.005,0.800,1.069,8.484,-21.179,6.104
0.064,0.576,0.980,-18.738,2.075,-34.058
0.101,0.239,0.783,-6.531,5.432,-24.902
0.081,0.435,0.816,17.883,3.601,0.183
0.065,0.606,0.878,24.048,3.296,9.216
0.067,0.464,0.865,11.658,5.371,-3.052
0.065,0.384,0.889,11.780,5.310,5.737
0.042,0.541,0.941,20.508,9.521,15.747
0.060,0.586,0.869,22.217,19.104,7.080
0.143,0.455,0.765,20.691,15.442,-4.150
0.147,0.383,0.764,24.902,3.601,-10.620
0.119,0.401,0.808,24.048,-3.052,-5.493
0.103,0.487,0.835,32.166,-16.357,-8.362
0.078,0.480,0.935,39.246,-22.583,-19.104
0.097,0.406,0.988,32.654,-12.024,-19.409
0.126,0.336,0.896,29.907,-1.404,-11.780
0.122,0.333,0.848,24.231,1.709,-5.615
0.098,0.362,0.904,17.639,-10.010,1.282
0.081,0.390,0.943,24.048,-13.306,2.991
0.070,0.427,0.946,37.476,-7.690,3.113
-1.120,1.423,2.115,87.402,-208.496,222.656
-1.116,1.564,2.223,69.458,-138.611,66.101
-1.107,0.931,2.182,41.687,-103.271,-11.902
-1.187,0.745,2.232,6.836,-54.260,-49.805
-1.322,1.198,2.650,-15.747,-30.518,-58.899
-1.427,1.254,2.897,-101.807,46.936,-158.264
-1.477,0.741,3.051,-128.052,109.497,-214.172
-1.478,0.544,2.912,-77.576,259.216,-265.808
-1.693,0.568,2.175,-47.607,327.942,-284.302
-1.732,0.359,1.658,-23.071,410.828,-361.511
-1.383,-0.695,0.962,-24.658,416.565,-383.301
-1.127,-1.090,0.839,-89.905,410.645,-304.687
-0.708,-1.035,0.741,-152.161,419.189,-229.858
-0.605,-0.885,0.478,-238.159,466.370,-117.859
-0.275,-0.448,-0.810,-261.047,484.863,-80.139
-0.051,-0.207,-1.480,-147.339,436.829,-67.749
0.165,0.160,-1.693,-123.291,341.125,-74.585
0.253,0.207,-1.356,-188.965,122.742,-107.849
0.317,-0.007,-0.476,-228.760,55.908,-121.094
0.325,-0.001,-0.116,-289.001,18.372,-96.436
0.382,0.161,-0.027,-241.760,37.659,-74.341
0.417,0.239,-0.291,-96.252,63.904,-53.772
0.454,0.263,-0.670,-7.507,40.833,-52.612
0.458,0.250,-0.583,125.854,-37.964,-31.555
0.420,0.430,-0.078,143.005,-66.650,-14.038
0.403,0.532,0.035,149.170,-74.036,-9.033
0.349,0.663,-0.222,117.798,-70.557,-20.691
0.363,0.624,-0.506,-23.987,-93.933,-65.918
0.285,0.231,-1.307,-96.375,-125.793,-82.642
0.154,0.079,-1.504,-180.420,-246.216,-70.618
-0.178,-0.088,-1.112,-177.856,-323.791,-52.307
-0.364,-0.095,-0.708,126.587,-479.492,-19.287
-0.483,-0.247,0.147,313.232,-519.592,-22.095
-0.514,-0.405,0.323,296.448,-497.436,-21.973
-0.665,-0.400,0.237,218.262,-485.107,1.526
-0.854,-0.244,0.310,90.637,-530.273,30.701
-1.356,-0.198,1.362,44.800,-565.979,32.776
-1.502,-0.075,2.286,44.312,-563.904,62.988
-1.164,0.314,3.443,74.951,-480.713,61.096
-0.942,0.224,3.021,121.277,-217.773,13.306
-0.771,-0.048,1.559,122.437,-152.527,2.808
-0.762,-0.060,1.475,76.660,-171.692,2.258
-0.723,-0.096,2.220,61.157,-174.316,2.319
-0.706,-0.071,2.461,65.063,-93.750,11.719
-0.656,0.268,2.022,68.787,-35.950,13.367
-0.618,0.307,1.613,43.457,26.733,-16.113
-0.546,0.094,1.320,20.203,25.513,-28.564
-0.510,0.053,1.413,6.714,19.531,-31.982
-0.447,0.076,1.410,24.780,36.804,-29.236
-0.429,0.112,1.374,33.020,49.683,-29.358
-0.411,0.109,1.455,21.423,61.768,-38.452
-0.393,-0.007,1.567,21.545,77.820,-40.894
-0.369,-0.039,1.298,46.631,122.070,-40.833
-0.208,-0.230,0.718,43.945,116.333,-43.396
-0.165,-0.322,0.947,3.784,54.077,-30.640
-0.167,-0.262,1.689,-12.085,51.575,-17.700
-0.176,-0.231,1.861,-74.036,98.938,-5.737
-0.226,-0.364,2.110,-117.920,127.808,-6.165
-0.308,-0.505,1.999,-122.925,207.764,-5.493
-0.244,-0.898,1.112,-58.350,240.417,-1.404
-0.139,-1.124,0.776,1.404,209.167,29.602
-0.012,-1.265,1.271,-44.678,160.583,58.411
-0.023,-1.226,1.666,-143.738,153.015,110.901
-0.081,-1.338,1.518,-153.625,203.064,127.319
-0.086,-1.543,1.016,-86.731,298.035,180.786
-0.191,-1.504,-0.158,-29.602,303.040,236.999
-0.227,-1.020,-0.516,136.292,212.097,361.511
-0.329,0.024,-0.437,153.687,138.489,388.550
-0.531,0.314,-0.173,-28.809,13.306,389.832
-1.089,1.366,0.488,-91.919,-19.470,399.719
-1.208,2.240,0.772,-59.570,-26.855,361.755
-0.949,2.813,0.881,-65.674,-13.611,262.756
-0.775,2.235,0.855,-104.675,-3.174,144.714
-0.564,1.381,0.866,-95.825,11.108,43.030
-0.496,1.434,0.762,-11.963,25.940,47.607
-0.381,1.374,0.725,-20.264,14.282,23.010
-0.306,1.085,0.889,-55.481,-3.967,-33.997
-0.134,0.531,0.975,-43.823,8.057,-39.551
-0.062,0.420,0.895,0.732,31.555,-18.250
0.039,0.393,0.798,18.066,33.813,-8.301
0.077,0.336,0.754,20.874,28.809,-2.502
0.127,0.165,0.701,13.184,21.790,3.113
0.112,0.177,0.721,10.315,4.395,28.076
0.037,0.431,0.860,13.794,-3.845,36.804
0.017,0.514,0.920,27.100,-3.052,25.391
-0.016,0.575,0.945,44.373,4.028,10.559
0.022,0.517,0.913,39.185,15.320,-14.709
0.086,0.338,0.769,32.471,15.442,-17.517
0.080,0.375,0.737,46.326,-0.122,-5.249
0.091,0.522,0.823,48.645,-9.521,-4.944
0.109,0.472,0.870,40.100,-14.282,-12.817
0.111,0.389,0.885,33.020,-11.108,-19.104
0.091,0.421,0.899,33.447,-9.338,-12.939
0.090,0.451,0.909,19.714,-9.705,-19.043
0.125,0.322,0.881,18.066,-9.460,-27.100
0.137,0.247,0.876,24.597,-11.658,-23.254
0.139,0.286,0.901,24.353,-13.245,-14.587
0.141,0.318,0.913,7.629,-13.611,-11.902
0.128,0.266,0.914,-5.859,-13.672,-15.991
0.126,0.235,0.920,-18.188,-16.113,-15.076
0.122,0.262,0.987,-17.090,-16.479,-8.240
0.118,0.305,0.999,-15.564,-13.794,-0.732
0.096,0.359,0.929,-7.141,-4.333,6.226
0.087,0.388,0.906,-4.089,-3.357,5.981
0.079,0.453,0.975,-15.747,-11.353,0.427
0.080,0.457,1.022,-25.024,-13.672,-4.456
0.126,0.428,0.992,-17.700,-3.052,-5.920
0.141,0.397,0.891,1.770,10.193,-3.967
0.129,0.380,0.804,7.263,5.859,-3.357
0.119,0.402,0.851,9.277,-1.831,-2.747
0.125,0.358,0.937,-2.502,-8.179,-7.080
0.130,0.311,0.964,-7.812,-6.287,-8.911
0.126,0.298,0.972,-0.793,2.930,-1.587
0.118,0.408,0.893,7.324,8.484,2.014
0.121,0.458,0.836,19.287,8.667,-8.118
0.129,0.383,0.812,18.494,0.183,-17.761
0.132,0.297,0.870,3.174,-15.991,-19.958
0.117,0.262,1.021,-3.052,-15.503,-10.925
0.115,0.310,1.035,-10.010,0.977,2.808
-1.137,0.688,1.829,143.433,-319.153,223.694
-1.186,0.879,2.120,95.947,-240.356,153.503
-1.247,0.776,2.076,61.462,-183.838,108.032
-1.368,0.776,1.991,35.034,-105.530,48.889
-1.622,1.067,2.207,32.532,-84.106,20.447
-1.698,1.198,2.421,-28.748,-23.376,-76.233
-2.050,1.372,2.874,-72.998,21.790,-135.803
-2.244,1.441,3.152,-111.877,127.441,-274.109
-2.685,1.052,3.118,-85.205,210.510,-352.417
-2.777,0.519,2.356,-19.836,425.659,-482.910
-2.245,-0.644,0.434,-28.748,481.995,-495.300
-1.742,-0.933,0.200,-111.023,410.889,-405.579
-1.160,-1.026,1.171,-157.471,364.441,-345.642
-1.054,-1.061,1.399,-274.353,405.212,-259.399
-0.762,-0.921,0.514,-318.359,454.712,-232.544
-0.506,-0.857,-0.248,-273.254,477.112,-200.073
0.093,-0.865,-1.206,-194.092,427.490,-181.152
0.212,-0.711,-1.080,-72.571,242.981,-83.618
0.256,0.047,-0.119,-33.142,167.297,-34.973
0.298,0.374,0.127,-6.592,140.686,-17.395
0.373,0.332,-0.284,-44.006,171.387,-69.519
0.400,0.137,-0.443,-77.026,159.546,-95.886
0.419,0.030,-0.406,-87.402,78.491,-85.693
0.484,0.101,-0.155,-45.898,50.232,-65.002
0.514,0.182,-0.193,42.053,36.133,-32.410
0.489,0.399,-0.306,52.856,19.714,-23.376
0.456,0.508,-0.130,16.235,-36.560,-27.466
0.425,0.536,0.270,-5.554,-45.471,-40.344
0.434,0.428,0.212,-29.724,-22.095,-62.195
0.442,0.289,-0.186,-25.574,-19.409,-59.143
0.456,0.321,-0.319,-10.071,-56.641,-42.480
0.426,0.350,-0.515,-15.137,-82.703,-40.405
0.387,0.260,-0.693,8.179,-137.146,-37.231
0.169,-0.035,-1.194,61.401,-177.734,-23.926
-0.052,0.013,-1.309,152.222,-314.331,21.545
-0.401,0.347,-0.860,128.113,-397.949,22.217
-0.594,0.291,-0.530,-2.258,-513.977,-9.705
-0.932,-0.174,-0.140,-43.884,-546.082,-3.479
-1.054,-0.326,-0.025,-33.081,-591.736,67.749
-1.334,-0.399,0.326,-18.066,-608.398,105.164
-1.498,-0.554,0.741,-39.917,-627.747,162.659
-1.901,-0.326,2.204,-41.504,-618.286,210.327
-1.999,0.311,2.913,64.087,-505.798,281.677
-1.677,1.491,3.199,110.657,-389.770,246.643
-1.422,1.313,2.647,135.925,-135.864,66.284
-1.106,0.076,1.285,137.207,-75.134,14.832
-1.012,-0.075,1.141,158.142,-83.679,38.208
-0.925,0.195,1.373,148.804,-86.975,49.927
-0.919,0.263,1.377,102.844,-61.035,39.429
-0.918,0.323,1.395,73.425,-48.523,30.823
-0.926,0.307,1.459,21.912,-18.250,18.005
-0.974,0.424,1.543,11.902,5.005,14.893
-1.007,0.535,1.407,20.569,58.838,-15.686
-0.918,0.453,0.927,31.189,72.937,-39.124
-0.825,0.334,0.812,20.142,59.631,-63.721
-0.726,0.230,1.125,-9.766,45.898,-65.979
-0.740,0.286,1.410,-34.302,41.626,-65.613
-0.824,0.505,1.693,-30.945,80.444,-70.435
-0.851,0.418,1.539,-13.733,118.042,-86.365
-0.805,0.177,1.233,20.020,176.392,-115.845
-0.584,-0.278,0.832,15.015,176.575,-110.107
-0.527,-0.227,1.154,-52.429,137.329,-71.655
-0.527,-0.080,2.093,-79.529,149.536,-70.251
-0.581,-0.226,2.162,-108.826,244.812,-88.623
-0.609,-0.661,1.562,-95.764,290.955,-90.271
-0.511,-0.959,1.074,-13.794,324.463,-57.617
-0.169,-1.332,0.555,10.315,298.706,-16.052
0.003,-1.406,0.557,15.747,227.234,82.397
0.243,-1.516,0.342,-1.953,209.229,130.005
0.268,-1.627,0.063,-67.810,172.913,230.469
-0.040,-1.719,-0.131,-68.970,139.954,298.096
-0.432,-1.318,0.148,-6.287,74.585,468.933
-1.284,0.577,0.850,26.428,64.758,528.992
-1.551,1.613,1.001,36.194,68.237,495.056
-1.464,2.835,0.832,-2.563,63.965,395.325
-1.272,2.699,0.534,-55.176,55.786,260.925
-0.932,1.953,0.222,-110.046,18.066,49.377
-0.776,1.660,0.451,-89.172,-8.118,1.465
-0.660,1.387,0.706,-31.433,-9.766,-33.020
-0.529,1.233,0.642,-1.648,10.864,-32.349
-0.445,1.112,0.623,4.028,13.123,-56.580
-0.271,0.494,0.859,0.549,10.071,-65.491
-0.194,0.335,0.838,27.649,30.884,-42.236
-0.104,0.224,0.579,41.992,35.645,-29.968
-0.087,0.230,0.548,39.734,11.169,-11.597
-0.046,0.225,0.745,21.362,-6.592,-9.033
-0.057,0.174,0.885,-2.441,-24.109,-4.150
-0.081,0.253,0.999,3.784,-20.630,3.601
-0.076,0.256,0.994,2.441,-13.550,6.775
-0.109,0.229,1.126,-3.967,-13.550,10.864
-0.139,0.369,1.203,12.085,3.174,27.710
-0.116,0.522,1.076,14.465,17.212,22.888
-0.088,0.408,0.968,-1.038,26.855,5.066
-0.082,0.412,0.792,11.353,25.940,10.376
-0.092,0.572,0.755,17.700,10.742,11.963
-0.039,0.472,0.856,-3.052,-0.854,-3.967
-0.017,0.273,0.915,-20.996,-6.165,-10.742
-0.056,0.361,0.939,0.977,0.427,7.263
-0.067,0.553,0.897,21.973,14.099,17.090
-0.030,0.387,0.797,2.563,13.245,1.221
-0.026,0.214,0.823,-31.250,1.282,2.930
-0.086,0.491,0.921,-14.893,0.549,21.118
-0.085,0.682,0.900,15.930,3.906,6.531
-0.047,0.373,0.894,-2.930,-1.221,-20.081
-0.031,0.167,0.954,-21.240,-7.446,-30.640
-0.041,0.240,0.966,-2.625,-3.113,2.380
-0.049,0.377,0.883,17.761,2.808,18.250
-0.057,0.456,0.795,23.804,-4.761,15.442
-0.080,0.457,0.851,9.827,-17.517,5.859
-0.077,0.397,0.963,-15.686,-28.320,-9.460
-0.073,0.241,1.081,-17.639,-21.667,-9.888
-0.085,0.257,1.061,4.944,-1.465,4.333
-0.095,0.398,0.960,16.602,3.296,5.310
-0.091,0.393,0.936,5.737,0.244,-9.888
-0.081,0.341,0.959,-0.916,-2.075,-13.245
-0.063,0.330,0.976,2.136,-0.732,-12.024
-0.033,0.249,0.968,3.174,1.892,-10.559
-0.044,0.263,0.942,5.676,5.249,-4.456
-0.055,0.447,0.878,19.287,10.620,12.024
-1.181,0.764,1.912,-71.594,-168.274,115.662
-1.303,1.041,2.271,-47.791,-113.220,66.223
-1.488,1.325,2.658,-36.499,-61.096,17.700
-1.631,1.316,2.581,11.597,69.458,-85.937
-1.730,1.214,2.292,41.443,117.249,-141.174
-1.747,0.983,2.357,12.329,155.212,-258.850
-1.794,0.185,2.557,-15.381,183.533,-286.682
-1.786,-0.001,2.318,-11.047,307.434,-261.169
-1.450,-0.112,1.225,0.732,362.915,-252.686
-1.071,-0.405,0.792,-118.164,362.122,-250.427
-0.947,-0.350,0.815,-199.829,334.900,-235.291
-0.672,-0.142,0.467,-277.222,333.313,-215.698
-0.389,-0.200,0.100,-291.931,334.778,-226.624
0.093,-0.529,-0.541,-261.658,314.087,-210.266
0.161,-0.502,-0.591,-175.476,227.722,-118.835
0.081,0.231,-0.237,-137.573,178.345,-81.665
0.069,0.542,0.068,-112.122,113.892,-104.065
0.117,0.364,0.315,-102.295,112.183,-137.573
0.225,0.038,0.136,-69.641,126.648,-141.785
0.267,0.060,0.036,8.240,118.958,-83.313
0.322,0.363,0.076,16.968,99.243,-59.570
0.361,0.472,0.210,-8.911,60.120,-59.631
0.417,0.349,0.297,-9.583,58.411,-71.289
0.434,0.239,0.197,-1.587,67.505,-70.557
0.469,0.210,-0.127,-3.235,61.340,-59.204
0.464,0.283,-0.216,-26.245,13.550,-39.185
0.463,0.435,-0.055,-40.710,-15.442,-37.354
0.477,0.315,-0.059,-7.324,-30.945,-41.748
0.457,0.172,-0.418,30.701,-31.250,-26.978
0.428,0.274,-0.642,71.167,-40.833,-7.324
0.283,0.417,-1.071,128.784,-96.924,2.869
0.186,0.419,-1.255,140.686,-143.616,-3.662
0.089,0.393,-1.352,125.549,-271.362,-27.344
-0.167,0.186,-1.120,91.858,-345.276,-42.969
-0.365,0.015,-0.844,27.710,-471.069,-47.119
-0.725,-0.178,-0.346,33.264,-508.972,-34.241
-0.898,-0.274,-0.265,133.667,-546.448,-9.277
-1.241,-0.471,-0.191,140.198,-564.758,0.732
-1.465,-0.693,-0.045,69.092,-608.154,43.396
-1.900,-0.650,0.841,69.763,-623.840,88.928
-2.074,-0.400,1.697,49.988,-632.629,152.588
-2.260,0.561,3.782,17.456,-594.116,167.236
-2.093,1.141,4.000,47.058,-295.349,105.835
-1.521,0.816,2.584,85.754,-89.294,24.048
-1.235,0.137,1.190,123.108,79.285,-61.768
-0.858,-0.417,0.595,94.666,20.142,-41.016
-0.851,-0.173,1.282,-5.066,-70.984,12.268
-1.010,0.353,2.245,-33.447,-39.429,13.245
-1.016,0.475,2.074,-12.024,86.548,-17.761
-0.880,0.232,1.136,15.076,124.329,-38.025
-0.825,0.007,0.877,46.631,110.901,-49.805
-0.689,-0.096,0.945,54.626,86.243,-37.964
-0.664,0.062,1.184,44.434,55.237,-14.160
-0.676,0.322,1.630,27.527,61.340,-17.639
-0.668,0.320,1.641,3.235,104.370,-40.955
-0.636,0.187,1.365,-0.305,124.512,-52.490
-0.591,0.026,1.174,2.625,137.268,-65.002
-0.503,-0.139,1.199,-5.981,126.953,-58.044
-0.474,-0.099,1.373,-29.663,125.488,-39.734
-0.398,-0.089,1.447,-42.358,141.968,-37.903
-0.353,-0.159,1.404,-88.440,169.312,-40.771
-0.316,-0.473,1.385,-111.694,176.941,-43.152
-0.258,-0.776,1.263,-81.116,201.782,-38.635
-0.023,-1.484,0.702,-48.584,205.566,-16.724
0.067,-1.671,0.497,-36.377,166.687,80.200
0.147,-1.617,0.456,-58.716,138.367,135.193
0.138,-1.599,0.471,-87.830,117.371,182.373
-0.236,-1.308,0.490,-125.244,103.882,291.443
-0.596,-0.662,0.605,-119.507,103.760,366.699
-0.954,0.268,0.663,-6.531,123.718,477.173
-1.324,2.386,0.333,18.860,120.728,467.041
-1.301,3.013,0.203,-44.617,42.236,263.794
-1.042,2.737,0.370,-85.632,-1.404,127.502
-0.798,2.036,0.527,-112.122,-39.490,-49.622
-0.421,0.808,0.853,-95.215,-35.706,-61.523
-0.359,0.749,0.882,-12.573,6.165,-7.446
-0.310,0.874,0.719,5.737,19.775,0.244
-0.271,0.700,0.666,-8.484,15.564,-17.456
-0.209,0.440,0.637,-8.545,10.132,-15.747
-0.207,0.459,0.667,5.798,0.122,-5.188
-0.198,0.444,0.801,5.127,-5.737,-6.958
-0.181,0.355,0.854,0.183,-10.742,-11.292
-0.186,0.315,0.920,0.854,-9.155,-5.554
-0.197,0.381,0.974,0.183,-6.470,1.099
-0.157,0.313,0.930,-1.770,5.310,-1.099
-0.131,0.214,0.842,0.671,10.864,-1.709
-0.125,0.220,0.824,10.132,7.690,20.264
-0.154,0.479,0.910,6.653,6.348,27.832
-0.153,0.516,0.898,-15.137,7.751,13.489
-0.131,0.384,0.829,-14.160,7.080,6.836
-0.130,0.401,0.817,9.399,7.568,18.127
-0.169,0.603,0.833,11.230,6.897,20.996
-0.166,0.594,0.854,-16.907,-0.122,2.747
-0.133,0.374,0.896,-31.677,-1.770,-3.113
-0.156,0.369,0.889,-23.010,3.662,8.850
-0.201,0.666,0.776,-6.165,6.104,12.390
-0.163,0.680,0.737,-33.508,-9.766,-21.118
-0.078,0.228,0.860,-67.139,-21.545,-37.537
-0.088,0.136,0.930,-71.289,-19.104,-10.132
-0.134,0.514,0.921,-31.555,-6.714,15.442
-0.119,0.609,0.808,10.864,9.583,11.536
-0.129,0.416,0.729,-0.732,1.831,0.549
-0.150,0.468,0.809,6.470,-13.794,9.216
-0.146,0.563,0.875,19.958,-12.390,6.042
-0.154,0.452,0.880,16.418,-10.742,-5.005
-0.185,0.507,0.995,14.587,-9.766,1.099
-0.172,0.545,0.993,13.000,3.052,-4.578
-0.161,0.384,0.855,9.705,7.446,-9.827
-0.171,0.432,0.814,19.348,4.822,1.038
-0.156,0.570,0.829,15.686,0.122,-2.380
-0.133,0.451,0.878,-5.249,-6.104,-20.325
-0.116,0.290,0.913,1.038,-1.709,-13.855
-0.130,0.397,0.874,23.071,7.996,7.202
-0.116,0.484,0.815,14.709,6.470,3.052
-0.098,0.365,0.820,-16.663,-1.892,-6.470
-0.123,0.364,0.856,-16.052,-2.991,2.563
-0.147,0.529,0.839,13.123,0.000,12.451
-0.131,0.504,0.797,11.353,-3.906,0.061
-0.121,0.292,0.942,-7.019,-14.709,-7.996
-1.821,2.141,1.867,180.664,-175.659,386.719
-1.776,2.396,2.065,84.839,-122.375,140.076
-1.768,1.545,1.951,22.949,-84.473,7.568
-1.833,1.266,2.016,-19.958,-43.884,-96.497
-2.081,1.581,2.576,-59.204,-19.714,-124.329
-2.188,1.615,2.630,-94.116,101.257,-250.061
-2.278,1.266,2.532,-84.717,168.884,-313.354
-2.344,1.016,2.549,-96.008,289.795,-407.532
-2.478,0.484,2.017,-116.028,354.980,-443.603
-1.953,-0.317,0.635,-116.882,446.106,-495.728
-1.366,-0.898,0.254,-209.717,381.470,-482.666
-0.548,-1.442,0.621,-285.461,324.463,-423.218
-0.422,-1.161,0.766,-296.204,299.255,-334.839
-0.298,-0.179,0.133,-113.159,342.957,-174.133
-0.167,0.147,-0.325,-55.969,355.225,-143.250
0.105,-0.004,-0.679,-79.712,280.457,-170.837
0.161,-0.164,-0.538,-116.821,213.440,-179.687
0.184,-0.211,-0.307,-118.652,116.577,-143.921
0.231,-0.004,-0.098,-97.839,101.929,-120.789
0.264,0.065,-0.189,-51.636,93.506,-105.347
0.341,-0.050,-0.431,-41.321,80.688,-102.966
0.348,-0.092,-0.458,-52.856,33.508,-82.764
0.339,0.017,-0.387,-53.711,9.705,-69.580
0.373,0.031,-0.361,-39.978,-26.489,-54.443
0.362,0.040,-0.339,-49.805,-40.833,-43.335
0.346,0.131,-0.328,-35.156,-63.538,-13.916
0.322,0.250,-0.416,-13.733,-73.303,-5.371
0.314,0.238,-0.484,-3.845,-111.755,2.319
0.236,0.023,-0.771,14.526,-135.803,9.583
0.157,-0.060,-1.050,130.493,-204.773,52.490
-0.182,0.157,-1.503,217.102,-267.578,74.341
-0.472,0.360,-1.431,324.890,-447.021,52.917
-1.074,0.404,-0.600,273.193,-534.058,9.827
-1.257,0.072,-0.038,50.476,-636.536,-45.837
-1.351,-0.595,0.775,-17.517,-638.672,-21.606
-1.352,-0.683,0.849,3.357,-583.191,84.290
-1.551,-0.220,1.126,42.603,-565.308,133.118
-1.570,0.053,1.566,98.267,-525.574,159.180
-1.491,0.340,2.393,99.304,-470.459,148.254
-1.422,0.490,2.475,115.967,-390.320,134.705
-1.193,0.498,2.033,176.270,-221.252,86.609
-1.097,0.285,1.775,178.345,-161.743,57.251
-1.042,0.074,1.731,129.944,-99.121,35.278
-1.029,0.165,1.688,106.995,-69.580,38.330
-1.003,0.258,1.546,50.598,-12.146,26.001
-0.921,0.300,1.545,26.184,2.441,10.742
-0.896,0.207,1.400,1.099,43.091,-22.583
-0.836,-0.132,0.897,-14.221,46.631,-30.945
-0.841,-0.174,1.059,-31.250,10.742,-10.864
-0.963,0.249,1.895,-27.649,10.986,2.075
-1.133,0.543,2.311,-29.602,73.669,-14.282
-1.180,0.519,2.095,-14.526,125.305,-35.583
-1.122,0.365,1.508,47.729,212.646,-75.745
-0.786,-0.051,0.677,50.049,201.904,-80.872
-0.568,0.033,1.337,15.930,133.057,-55.237
-0.558,0.222,1.758,-7.507,127.991,-43.274
-0.560,0.166,1.883,-58.655,187.683,-62.927
-0.571,-0.036,1.490,-68.298,231.140,-78.430
-0.504,-0.282,0.854,10.803,274.780,-80.994
-0.084,-0.734,-0.177,44.617,244.690,-63.843
0.060,-0.775,0.101,-42.664,95.581,-6.287
0.104,-0.737,1.552,-116.150,54.687,11.841
0.041,-0.896,1.877,-230.713,105.041,19.348
-0.114,-1.477,1.456,-242.798,150.513,29.236
-0.046,-1.928,0.914,-151.978,201.233,101.807
0.001,-2.260,0.299,-125.610,185.669,185.913
-0.216,-1.912,0.457,-64.148,144.775,390.747
-1.077,-0.349,0.754,-3.662,153.870,477.844
-1.474,0.883,0.594,117.187,181.458,553.894
-1.607,3.143,-0.068,113.586,157.776,495.544
-1.390,3.489,-0.219,-66.040,30.579,194.946
-0.842,2.041,0.128,-154.663,-33.142,46.875
-0.677,1.318,0.584,-184.265,-71.716,-23.682
-0.590,1.149,0.909,-66.833,-29.358,8.301
-0.511,1.337,0.603,-3.235,12.939,17.883
-0.446,1.195,0.476,5.981,11.475,-16.541
-0.316,0.700,0.829,-13.489,-2.869,-29.724
-0.302,0.525,0.879,14.038,18.616,-24.353
-0.225,0.298,0.659,46.753,29.907,-14.832
-0.177,0.217,0.633,74.402,17.517,9.460
-0.172,0.239,0.827,66.467,5.676,23.743
-0.183,0.286,0.930,43.335,-2.625,41.077
-0.171,0.302,1.059,26.367,-1.343,43.396
-0.169,0.310,1.100,24.902,12.085,41.138
-0.192,0.394,0.978,44.617,24.109,36.499
-0.200,0.463,0.861,41.382,24.902,24.353
-0.189,0.515,0.889,23.926,12.695,12.756
-0.178,0.415,0.987,-11.963,5.188,-2.441
-0.160,0.299,0.988,-15.015,15.320,5.188
-0.143,0.371,0.888,-3.113,26.123,18.127
-0.088,0.547,0.643,36.316,23.254,20.569
-0.084,0.511,0.675,57.800,2.991,3.296
-0.105,0.428,0.856,44.922,-20.142,-15.198
-0.097,0.320,1.046,30.090,-5.615,-12.634
-0.044,0.212,0.879,42.175,21.362,-10.864
-0.018,0.090,0.668,53.162,8.972,-1.282
-0.048,0.221,0.735,54.016,-24.658,28.503
-0.137,0.426,0.921,44.861,-31.799,25.452
-0.171,0.374,1.056,29.846,-37.109,5.005
-0.131,0.141,1.212,27.527,-27.832,2.014
-0.118,0.066,1.104,31.128,1.221,17.761
-0.126,0.152,0.890,39.490,1.587,28.503
-0.152,0.279,0.891,43.274,-15.015,34.546
-0.247,0.551,0.963,27.527,-21.912,26.611
-0.261,0.562,1.057,-39.429,-34.180,-12.817
-0.187,0.234,1.223,-61.462,-29.419,-31.860
-0.133,0.062,1.146,-28.442,5.615,-29.907
-0.118,0.097,0.879,-9.094,15.930,-14.893
-0.152,0.232,0.841,-4.639,3.784,-1.343
-0.182,0.397,0.941,-1.343,-5.005,-6.165
-0.167,0.347,1.001,1.160,-6.042,-17.517
-0.152,0.234,1.003,-0.427,-0.183,-15.137
-0.165,0.238,0.968,-7.141,5.493,-7.568
-0.153,0.217,0.943,-5.615,0.366,-7.690
-0.122,0.181,0.959,11.475,-4.089,-2.136
-0.134,0.238,0.982,9.155,1.892,5.310
-0.156,0.333,0.960,4.150,14.038,9.644
-0.152,0.351,0.858,-1.648,13.855,2.136
-0.136,0.281,0.826,-11.047,10.071,-5.737
-1.049,0.705,1.549,-3.967,-98.755,218.628
-1.213,1.157,1.779,-5.005,-72.815,207.336
-1.352,1.867,1.968,-4.150,-47.119,156.189
-1.408,1.857,2.049,-22.278,-2.686,-12.634
-1.443,1.593,2.168,-45.349,14.771,-96.924
-1.358,0.929,2.175,-83.252,79.712,-214.600
-1.328,0.788,2.065,-44.434,171.936,-244.324
-1.464,0.982,1.740,-33.203,213.257,-245.850
-1.563,1.036,1.557,-96.924,270.996,-305.542
-1.586,0.544,1.670,-172.607,281.250,-360.779
-1.499,0.237,1.760,-344.910,336.853,-454.346
-0.922,-0.767,0.882,-375.610,383.118,-498.474
-0.561,-1.394,0.183,-277.893,398.071,-453.430
-0.104,-1.341,-0.424,-230.347,361.694,-328.979
0.010,-0.769,-0.368,-137.756,273.010,-84.106
0.234,0.180,-0.439,-100.464,249.145,-42.908
0.364,0.323,-0.695,-171.753,207.031,-101.257
0.364,0.289,-0.633,-351.562,100.159,-190.369
0.389,0.036,-0.201,-354.065,45.837,-207.642
0.443,-0.071,0.042,-170.044,-10.376,-164.062
0.537,0.022,0.426,-70.679,-6.836,-124.939
0.585,0.068,0.379,19.714,46.875,-70.740
0.576,0.088,-0.041,77.820,67.566,-45.044
0.571,0.182,-0.188,240.906,68.115,19.470
0.586,0.643,-0.372,237.793,53.833,33.997
0.570,0.745,-0.468,170.288,31.982,21.240
0.535,0.661,-0.539,-23.132,-38.208,-36.011
0.500,0.301,-0.497,-77.209,-77.576,-41.626
0.502,0.222,-0.541,0.732,-120.544,3.540
0.331,0.255,-0.844,114.197,-139.038,35.828
0.213,0.629,-0.694,118.835,-229.492,72.266
0.176,0.755,-0.423,45.227,-259.705,31.372
0.090,0.247,-0.523,120.361,-305.237,-38.330
-0.181,-0.292,-0.403,209.473,-346.680,-19.714
-0.302,-0.056,-0.224,108.582,-419.617,42.053
-0.571,0.393,0.042,62.012,-439.148,44.189
-0.689,0.383,0.294,121.277,-465.942,21.423
-0.733,0.080,0.769,160.278,-468.079,10.254
-0.798,-0.056,0.909,160.950,-455.933,19.348
-0.866,0.238,1.289,92.285,-454.346,33.752
-0.862,0.295,1.566,-36.316,-424.927,17.578
-0.777,0.176,2.011,-41.260,-382.324,14.099
-0.682,0.223,2.076,32.043,-267.334,27.954
-0.540,0.286,1.870,63.110,-209.412,26.672
-0.521,0.135,1.675,72.205,-123.657,21.118
-0.535,0.188,1.617,85.876,-94.177,27.832
-0.541,0.509,1.463,111.511,-48.645,37.170
-0.513,0.581,1.451,83.618,-37.048,26.611
-0.429,0.390,1.426,26.001,-16.357,-13.367
-0.419,0.250,1.446,17.029,-7.385,-26.672
-0.432,0.209,1.333,23.315,16.968,-25.574
-0.435,0.278,1.144,39.185,32.104,-19.958
-0.433,0.312,1.044,34.119,26.245,-20.752
-0.433,0.297,1.415,8.545,15.137,-24.170
-0.443,0.286,1.566,-16.174,42.603,-26.550
-0.452,0.291,1.273,-6.897,68.237,-26.733
-0.429,0.262,1.139,-14.893,73.242,-36.865
-0.375,0.156,1.299,-27.466,64.514,-41.565
-0.342,0.121,1.380,-31.982,76.172,-42.175
-0.236,-0.023,1.338,-37.537,87.463,-43.213
-0.165,-0.177,1.377,-48.401,97.839,-44.617
-0.050,-0.548,1.538,-49.011,106.812,-33.997
-0.036,-0.633,1.598,-63.721,133.911,8.118
-0.094,-0.780,1.573,-78.918,149.353,22.949
-0.107,-0.979,1.466,-125.061,171.265,37.537
-0.139,-1.495,1.364,-148.682,173.584,57.495
-0.178,-1.589,1.298,-150.818,183.105,100.281
-0.338,-1.078,0.670,-48.401,238.586,243.591
-0.451,-0.510,0.303,11.963,250.854,315.918
-0.689,0.568,0.126,9.827,192.871,377.502
-0.795,0.913,0.358,-34.729,145.325,366.333
-0.891,1.289,0.755,-51.758,108.643,319.885
-0.922,1.414,0.605,-17.822,124.573,298.706
-0.972,1.648,0.369,41.016,118.347,263.062
-0.924,2.405,0.245,54.504,84.717,223.816
-0.795,2.424,0.335,-0.977,15.137,60.974
-0.517,1.351,0.608,-49.011,-7.751,-12.207
-0.418,0.910,0.775,-60.608,-13.367,-25.940
-0.344,0.868,0.828,-28.259,3.357,-0.366
-0.331,0.991,0.704,25.574,25.146,11.108
-0.273,0.924,0.579,22.888,17.212,-4.944
-0.217,0.747,0.658,4.700,-5.859,-29.114
-0.094,0.311,0.868,8.057,-7.019,-27.527
-0.071,0.183,0.938,19.226,3.784,4.944
-0.075,0.309,0.958,20.325,12.634,24.536
-0.069,0.391,0.865,10.376,24.963,31.372
-0.095,0.445,0.699,9.216,18.738,24.536
-0.122,0.528,0.760,-3.418,-7.507,11.536
-0.084,0.544,0.913,-6.287,-10.376,-1.648
-0.068,0.411,0.902,-7.874,-5.859,-15.259
-0.074,0.384,0.981,-9.460,0.427,-12.390
-0.061,0.465,1.029,-2.075,7.935,-4.639
-0.051,0.507,0.940,21.240,42.419,-4.089
-0.017,0.506,0.599,30.273,42.542,-6.592
-0.012,0.485,0.640,17.029,5.432,-10.498
-0.014,0.459,0.882,13.794,-1.526,-9.888
-0.014,0.493,0.879,28.931,13.367,-3.845
-0.007,0.583,0.814,32.043,16.357,-5.737
0.014,0.566,0.798,29.968,14.160,-23.132
0.051,0.403,0.766,25.085,10.864,-31.067
0.043,0.339,0.823,-2.197,-4.089,-31.982
0.078,0.306,0.980,-10.071,-6.714,-28.015
0.105,0.270,0.965,19.104,9.338,-8.057
0.042,0.343,0.810,46.570,16.479,11.353
0.026,0.478,0.800,66.589,14.099,26.001
0.010,0.495,0.947,61.279,-3.723,12.146
0.005,0.407,1.015,46.692,-6.104,-0.244
0.004,0.334,1.053,40.527,4.578,-0.305
0.033,0.318,1.007,39.490,12.268,6.897
0.051,0.316,0.941,20.569,15.442,8.728
0.006,0.356,0.904,7.935,8.972,8.667
-0.018,0.431,0.970,-5.615,-5.249,5.371
-0.004,0.448,1.079,-4.211,-3.174,-2.991
0.018,0.365,1.040,2.197,13.000,-15.564
0.057,0.249,0.898,6.470,15.991,-13.306
0.072,0.231,0.872,14.526,7.141,-4.883
0.063,0.258,0.936,16.357,2.808,-0.122
0.049,0.310,0.958,16.296,5.127,5.859
0.045,0.349,0.923,15.320,7.385,3.784
-0.348,1.044,1.774,-38.269,-29.358,-6.042
-0.489,1.305,1.898,-50.659,2.197,-41.199
-0.622,1.544,2.189,-59.021,17.151,-81.787
-0.527,1.267,2.391,-71.960,66.284,-177.002
-0.296,0.497,2.135,-71.716,119.019,-190.979
-0.133,0.451,1.198,-72.388,200.439,-155.457
-0.092,0.503,1.045,-78.308,196.777,-147.705
0.040,0.252,1.211,-114.990,167.114,-165.039
0.088,0.070,1.089,-131.409,181.091,-166.687
0.150,-0.034,0.803,-88.196,220.276,-130.859
0.244,0.006,0.246,-50.537,216.248,-106.079
0.175,0.406,0.338,-78.674,166.077,-62.683
0.177,0.540,0.459,-143.982,143.494,-62.378
0.238,0.511,0.388,-243.347,146.362,-105.957
0.285,0.197,0.005,-261.963,147.583,-122.314
0.236,0.178,0.027,-339.294,99.060,-103.027
0.303,0.356,0.165,-337.463,80.261,-94.849
0.318,0.289,0.069,-129.639,76.050,-106.323
0.344,0.086,-0.092,-52.368,62.988,-97.229
0.353,0.065,-0.056,22.888,22.827,-53.162
0.345,0.140,0.228,64.880,8.667,-28.748
0.353,0.227,0.338,127.563,10.193,5.920
0.370,0.347,0.278,123.596,17.334,8.972
0.369,0.353,0.140,88.989,20.203,3.784
0.362,0.310,-0.055,6.042,11.719,-7.263
0.350,0.269,-0.385,-20.813,-2.991,-1.953
0.341,0.348,-0.484,-25.696,-43.091,14.343
0.282,0.412,-0.797,-10.315,-62.500,13.977
0.239,0.359,-0.965,1.709,-127.686,10.437
0.051,0.276,-1.034,7.935,-174.866,14.709
-0.090,0.293,-0.897,100.342,-266.663,31.616
-0.318,0.466,-0.539,184.387,-296.448,32.776
-0.384,0.520,-0.570,268.066,-323.303,-1.160
-0.544,0.375,-0.750,218.933,-351.013,-31.677
-0.626,0.022,-0.586,117.187,-444.214,-87.036
-0.964,-0.699,0.296,94.421,-485.535,-74.951
-1.208,-0.570,1.306,-14.709,-561.462,25.024
-1.150,0.281,3.545,-39.063,-532.288,61.646
-0.810,0.507,3.573,99.121,-231.995,42.175
-0.446,0.328,1.472,144.043,-101.074,8.057
-0.439,0.085,1.037,135.925,-80.566,-18.005
-0.432,0.019,2.178,93.750,-176.880,-10.498
-0.391,0.191,2.409,107.727,-155.518,6.165
-0.348,0.313,2.008,114.380,-55.298,5.188
-0.344,0.323,1.992,92.163,-38.330,-3.052
-0.344,0.313,1.999,62.439,-11.597,-18.921
-0.302,0.199,1.758,61.523,3.601,-26.062
-0.262,0.126,1.705,43.213,8.118,-33.997
-0.240,0.124,1.767,26.489,9.583,-32.227
-0.224,0.184,1.767,10.376,29.846,-28.259
-0.154,0.146,1.566,11.292,43.335,-30.640
-0.130,0.094,1.464,18.860,57.617,-28.137
-0.129,0.136,1.306,24.414,61.951,-22.949
-0.108,0.115,1.244,24.353,62.439,-28.259
-0.065,-0.100,1.274,13.550,58.411,-31.555
-0.052,-0.154,1.338,1.099,63.416,-21.606
-0.013,-0.198,1.225,1.221,75.928,-16.357
0.008,-0.259,1.162,-17.151,83.557,-9.521
0.022,-0.376,1.335,-32.043,80.872,-2.075
0.029,-0.420,1.442,-44.983,84.961,7.202
0.048,-0.503,1.469,-54.443,117.615,22.339
0.078,-0.771,1.269,-49.438,136.841,32.593
0.098,-0.890,0.961,-37.476,158.875,67.566
0.163,-0.992,0.768,-29.785,162.598,82.458
0.224,-1.145,0.582,-18.127,151.489,123.657
0.091,-0.917,0.518,-13.428,135.925,171.204
-0.064,-0.424,0.596,-28.992,110.046,264.343
-0.403,0.534,0.735,-58.594,102.478,276.062
-0.570,1.002,0.723,-52.917,107.300,260.986
-0.561,1.931,0.285,-23.926,108.521,227.783
-0.425,1.938,0.167,-35.767,51.270,90.149
-0.285,1.343,0.570,-46.875,19.226,44.800
-0.268,1.341,0.743,2.869,22.705,40.894
-0.194,1.439,0.618,25.757,33.997,29.419
-0.122,1.185,0.604,16.235,17.212,-20.996
-0.002,0.640,0.830,10.864,7.568,-27.039
0.024,0.584,0.851,29.724,13.123,-10.254
0.100,0.508,0.777,36.499,12.756,-10.742
0.142,0.332,0.807,25.208,-1.770,-19.653
0.142,0.237,0.932,18.372,-6.592,-11.658
0.134,0.295,1.014,7.324,-9.155,-5.249
0.142,0.179,1.137,4.395,-5.798,-9.399
0.151,0.148,1.140,0.977,8.789,-1.953
0.149,0.268,1.086,0.549,15.686,2.808
0.164,0.287,1.058,16.541,25.513,0.000
0.218,0.229,0.977,28.442,29.358,-0.549
0.225,0.260,0.949,45.349,32.043,4.944
0.236,0.348,0.916,45.776,31.738,4.028
0.247,0.301,0.933,20.691,26.001,-5.554
0.260,0.174,1.051,11.597,26.245,-4.150
0.272,0.208,1.006,17.761,34.241,4.333
