aX,aY,aZ,gX,gY,gZ
0.531,-0.994,1.020,26.123,29.419,-23.071
0.474,-1.018,1.043,49.927,39.063,7.690
0.329,-1.094,0.955,64.209,44.495,24.353
0.257,-1.124,0.904,76.172,50.842,67.200
0.171,-1.032,0.831,78.430,52.246,91.980
0.164,-0.899,0.807,85.815,47.852,140.320
0.156,-0.628,0.826,89.966,47.119,159.180
0.111,-0.556,0.794,97.534,56.885,186.951
-0.074,-0.543,0.627,99.426,63.965,203.308
-0.175,-0.561,0.517,102.661,71.594,253.296
-0.363,-0.379,0.398,105.041,73.181,286.743
-0.439,-0.173,0.364,121.460,81.116,357.422
-0.432,0.498,0.351,125.427,82.886,389.587
-0.292,1.099,0.338,119.690,81.238,409.119
-0.114,1.625,0.175,102.600,80.139,366.333
0.050,1.439,-0.153,109.375,64.514,318.115
-0.068,1.007,-0.169,126.770,13.550,266.785
-0.445,0.560,-0.320,127.808,-5.127,276.855
-0.488,0.682,-0.322,106.567,-47.729,328.918
-0.111,1.548,0.018,88.074,-63.232,340.088
0.107,1.947,0.065,53.345,-56.335,282.959
0.254,2.095,-0.181,46.814,-53.101,232.788
0.227,1.990,-0.287,64.148,-88.074,138.733
0.137,1.515,-0.175,79.041,-117.432,102.173
0.102,1.389,-0.031,62.256,-148.499,81.726
0.173,1.623,0.044,41.809,-147.827,80.261
0.266,1.765,0.129,26.367,-156.860,51.819
0.258,1.537,0.560,40.771,-163.818,26.428
0.194,1.351,0.598,60.120,-162.231,5.371
0.133,1.258,0.458,76.660,-152.527,-15.198
0.133,1.303,0.439,75.256,-154.053,-21.118
0.145,1.150,0.742,72.144,-166.504,-40.405
0.134,1.001,0.884,74.768,-164.673,-49.927
0.115,0.887,0.750,82.153,-132.935,-55.054
0.141,0.956,0.669,77.698,-119.324,-52.734
0.170,0.932,0.818,71.899,-116.028,-61.951
0.164,0.842,0.866,77.026,-117.004,-71.594
0.144,0.650,0.794,82.886,-115.601,-84.961
0.151,0.588,0.851,75.256,-114.563,-84.656
0.156,0.547,1.013,63.721,-103.821,-77.026
0.171,0.577,0.988,62.500,-95.215,-72.815
0.246,0.624,0.997,46.692,-87.463,-70.129
0.259,0.602,1.118,33.875,-85.999,-70.862
0.214,0.564,1.197,25.146,-68.970,-70.679
0.212,0.590,1.191,29.907,-58.167,-68.542
0.271,0.642,1.247,34.851,-56.458,-70.190
0.293,0.640,1.253,41.199,-54.077,-73.608
0.284,0.553,1.216,45.959,-45.349,-80.078
0.275,0.503,1.224,31.616,-34.973,-80.078
0.277,0.481,1.265,25.391,-28.748,-78.857
0.285,0.476,1.260,19.531,-17.090,-79.651
0.273,0.421,1.230,20.203,-13.123,-81.055
0.254,0.407,1.167,22.400,-9.216,-81.665
0.248,0.417,1.106,19.653,-8.057,-82.275
0.271,0.416,1.106,14.832,-9.521,-83.557
0.275,0.302,1.153,5.005,-5.249,-85.937
0.261,0.251,1.155,2.930,0.732,-85.022
0.244,0.225,1.124,11.353,9.705,-80.627
0.237,0.183,0.990,15.625,9.399,-78.308
0.243,0.144,0.972,13.489,4.395,-70.740
0.258,0.083,0.927,13.916,3.479,-65.796
0.256,0.069,0.860,15.564,1.587,-55.420
0.306,0.178,0.838,9.583,-1.465,-50.171
0.333,0.234,0.893,4.333,-5.920,-48.462
0.299,0.133,0.927,9.583,-5.493,-50.049
0.256,0.055,0.901,13.916,-5.249,-45.776
0.241,0.013,0.792,13.123,-7.507,-40.588
0.249,0.006,0.775,14.893,-22.156,-32.227
0.246,-0.013,0.781,16.113,-28.992,-27.893
0.241,0.000,0.767,8.972,-35.156,-16.357
0.280,0.087,0.808,1.526,-36.255,-11.597
0.282,0.103,0.865,-6.348,-30.945,-8.911
0.258,0.136,0.902,-8.545,-23.682,-8.789
0.271,0.178,0.883,-6.287,-19.165,-6.714
0.290,0.283,0.890,2.014,-29.541,0.488
0.318,0.297,0.927,3.235,-35.522,-0.183
0.314,0.327,1.022,9.766,-31.860,-7.690
0.270,0.286,1.020,14.404,-20.874,-14.282
0.256,0.232,1.024,13.306,1.831,-17.700
0.280,0.205,1.020,12.634,10.681,-15.747
0.284,0.210,1.003,15.686,20.996,-10.437
0.283,0.224,0.930,19.409,21.912,-8.484
0.285,0.246,0.884,20.874,14.954,-7.751
0.283,0.246,0.855,17.517,6.836,-9.521
0.283,0.222,0.888,7.324,-6.714,-12.329
0.273,0.199,0.955,5.493,-7.812,-11.536
0.254,0.189,0.973,9.888,-3.357,-7.507
0.238,0.173,0.960,13.672,-1.953,-5.554
0.234,0.177,0.943,15.747,-2.014,-3.784
0.252,0.219,0.877,12.817,-1.282,-0.183
0.267,0.240,0.896,9.033,-1.465,0.610
0.274,0.257,0.940,4.028,-3.113,0.122
0.286,0.267,0.930,5.737,-1.831,-0.854
0.295,0.266,0.900,7.751,-3.906,-1.648
0.279,0.247,0.921,5.859,-5.981,-1.831
0.269,0.244,0.932,3.723,-2.747,-1.587
0.275,0.246,0.934,4.333,-0.427,-1.587
0.274,0.239,0.929,5.615,2.258,-1.831
0.268,0.246,0.911,5.127,1.099,-1.892
0.266,0.237,0.935,4.395,-5.798,-3.235
0.267,0.225,0.974,3.906,-6.348,-3.174
0.272,0.230,0.983,1.587,-2.380,-1.892
0.264,0.209,0.991,2.319,-1.648,-0.977
0.257,0.203,0.978,5.432,-1.892,-0.366
0.253,0.198,0.956,10.376,-0.427,-1.038
0.265,0.212,0.928,9.094,1.892,-0.061
0.278,0.218,0.920,1.953,0.732,0.244
0.275,0.204,0.978,-0.244,0.549,-0.488
0.267,0.198,0.975,3.601,5.981,-1.221
0.271,0.190,0.942,5.554,6.958,-0.793
0.276,0.202,0.932,4.028,4.517,0.854
0.278,0.204,0.909,3.540,3.601,0.671
0.274,0.185,0.911,1.038,0.977,1.404
0.261,0.204,0.894,-0.061,0.732,2.197
0.269,0.208,0.893,-0.061,1.221,2.014
0.272,0.195,0.937,-1.343,-2.075,1.892
0.263,0.180,0.971,-0.244,-1.343,3.052
0.257,0.189,0.927,1.709,1.404,5.676
0.276,0.219,0.900,-0.061,0.244,5.249
0.713,0.657,1.297,12.634,43.213,-42.236
0.725,0.613,1.255,13.123,68.542,-68.848
0.735,0.510,1.138,13.733,70.740,-77.209
0.754,0.510,1.130,13.367,62.744,-90.210
0.840,0.545,1.097,15.320,62.012,-98.145
0.873,0.566,1.111,17.944,62.317,-111.023
0.889,0.579,1.036,15.991,64.819,-120.911
0.927,0.595,0.987,-1.526,60.364,-154.114
0.843,0.272,1.156,0.916,63.416,-166.016
0.801,0.214,1.113,-12.695,103.577,-158.630
0.787,0.129,0.813,-16.907,111.877,-156.128
0.751,0.024,0.709,-3.662,90.332,-150.085
0.668,-0.168,0.656,5.432,72.021,-143.982
0.636,-0.211,0.705,13.611,54.810,-133.362
0.684,-0.159,0.772,10.681,62.378,-131.653
0.685,-0.220,0.829,-1.648,81.970,-129.639
0.572,-0.433,0.871,-6.165,82.214,-117.432
0.572,-0.379,0.911,-9.277,59.814,-88.928
0.609,-0.367,0.987,-4.089,54.016,-86.182
0.634,-0.408,1.018,-6.226,66.223,-89.050
0.589,-0.544,1.102,-4.639,76.050,-87.708
0.561,-0.615,1.146,22.888,79.834,-76.050
0.476,-0.681,1.331,42.725,77.209,-68.909
0.381,-0.739,1.268,64.392,100.220,-54.932
0.314,-0.817,1.050,47.058,114.136,-42.175
0.264,-0.860,1.167,23.560,122.498,-10.681
0.120,-0.896,1.142,33.264,130.798,7.080
0.052,-0.871,1.004,47.424,138.367,25.879
-0.023,-0.833,0.870,76.050,136.963,62.988
-0.110,-0.732,0.543,90.332,128.540,80.322
-0.103,-0.557,0.429,100.647,99.915,112.000
-0.114,-0.467,0.447,98.267,88.989,127.502
-0.176,-0.357,0.371,101.501,80.811,149.231
-0.226,-0.367,0.328,103.882,79.834,158.630
-0.272,-0.369,0.248,112.427,89.416,189.941
-0.413,-0.289,-0.161,119.141,94.421,210.876
-0.463,-0.212,-0.407,115.234,80.017,255.066
-0.430,0.182,-0.784,97.412,64.026,273.926
-0.368,0.444,-0.758,55.542,25.818,283.264
-0.339,0.586,-0.619,57.922,3.235,269.409
-0.352,0.552,-0.613,68.420,-53.589,251.953
-0.276,0.699,-0.324,70.496,-84.717,257.324
-0.237,0.803,-0.168,104.736,-127.075,259.277
-0.132,0.970,-0.310,113.037,-133.484,253.052
-0.072,1.119,-0.387,79.041,-142.212,243.835
0.058,1.626,-0.238,63.477,-152.832,233.887
0.108,1.754,0.060,71.899,-186.035,173.035
0.110,1.411,0.638,96.191,-192.139,134.583
0.070,1.160,0.659,123.413,-178.345,100.525
0.173,1.241,0.543,105.225,-174.377,106.140
0.336,1.517,0.750,65.369,-180.237,101.318
0.525,1.619,1.114,81.360,-177.551,75.317
0.487,1.356,1.121,120.361,-161.621,19.165
0.347,0.993,1.160,113.708,-154.053,10.376
0.328,0.995,1.253,82.886,-139.404,9.277
0.412,1.082,1.324,81.238,-132.507,3.784
0.475,1.132,1.247,83.557,-122.192,-19.592
0.453,1.068,1.274,75.623,-117.493,-33.813
0.374,0.952,1.260,69.946,-109.009,-46.753
0.247,0.741,1.141,69.458,-100.952,-60.852
0.233,0.683,1.155,68.481,-107.666,-63.599
0.235,0.666,1.222,55.420,-118.408,-64.636
0.226,0.703,1.383,44.128,-113.220,-65.369
0.203,0.727,1.403,30.090,-88.928,-70.923
0.202,0.690,1.374,33.447,-81.238,-75.928
0.163,0.530,1.221,43.640,-75.989,-87.280
0.157,0.475,1.249,20.081,-72.998,-92.041
0.122,0.347,1.365,9.277,-65.979,-93.018
0.115,0.316,1.350,-8.911,-47.791,-92.285
0.102,0.321,1.288,-17.212,-41.382,-91.919
0.111,0.292,1.345,-19.592,-38.574,-91.675
0.137,0.148,1.380,-9.766,-33.936,-90.637
0.158,0.094,1.273,-1.160,-23.071,-82.886
0.240,0.096,1.195,-8.545,-22.888,-78.674
0.252,0.082,1.260,-16.174,-21.545,-77.820
0.211,-0.038,1.323,-12.390,-15.381,-76.843
0.214,-0.059,1.261,-9.827,-0.122,-66.711
0.251,-0.084,1.177,-10.010,2.808,-60.669
0.261,-0.093,1.144,-9.888,5.676,-51.392
0.235,-0.099,1.156,-12.939,6.775,-49.500
0.191,-0.149,1.164,-12.085,16.541,-42.175
0.169,-0.135,1.001,-11.414,21.545,-33.875
0.193,-0.075,0.932,-14.404,18.372,-19.775
0.199,-0.020,0.920,-14.282,15.381,-15.808
0.192,0.006,0.912,-12.695,17.090,-8.423
0.194,0.114,0.892,-13.184,18.188,-5.798
0.199,0.162,0.892,-12.878,18.066,-4.578
0.221,0.235,0.852,-11.230,18.127,-5.188
0.236,0.256,0.816,-9.338,17.822,-5.798
0.237,0.246,0.810,-4.944,14.343,-5.127
0.236,0.247,0.800,-1.770,13.062,-3.418
0.248,0.283,0.817,1.099,7.996,-0.916
0.248,0.292,0.855,0.488,6.226,-1.099
0.250,0.306,0.876,0.244,8.484,-0.793
0.269,0.370,0.896,1.221,8.484,-1.160
0.266,0.368,0.904,5.615,5.615,-4.578
0.241,0.306,0.916,7.996,4.395,-5.981
0.235,0.278,0.937,8.545,3.601,-5.615
0.226,0.265,0.977,6.958,6.104,-4.761
0.211,0.250,0.971,5.737,11.841,-2.686
0.227,0.261,0.910,4.578,11.902,-0.671
0.246,0.277,0.907,2.014,9.399,0.977
0.267,0.295,0.937,-3.174,6.104,1.404
0.267,0.297,0.945,-4.578,7.141,0.244
0.262,0.290,0.944,-3.906,10.559,-1.770
0.248,0.277,0.922,-3.235,11.902,-1.099
0.257,0.293,0.885,-1.404,12.207,2.380
0.298,0.337,0.849,-2.136,10.010,2.869
0.301,0.336,0.851,-1.648,6.836,0.427
0.292,0.325,0.838,-1.404,6.531,-1.099
0.277,0.307,0.857,-2.808,5.798,-3.662
0.257,0.264,0.853,-2.075,7.080,-3.052
0.274,0.284,0.818,-1.831,6.897,0.244
0.305,0.321,0.819,-3.479,4.517,-0.061
0.295,0.299,0.852,-4.822,2.136,-2.258
0.267,0.258,0.870,-2.258,2.991,-1.709
0.272,0.266,0.856,0.366,3.174,-0.122
0.289,0.314,0.831,0.427,0.732,1.892
0.304,0.332,0.826,-1.587,0.427,1.404
0.572,0.673,1.518,-2.808,48.035,-37.048
0.583,0.701,1.510,9.583,64.026,-52.612
0.569,0.588,1.421,12.512,72.510,-60.974
0.550,0.494,1.384,13.733,83.862,-70.679
0.539,0.383,1.224,14.343,87.830,-72.815
0.542,0.375,1.157,13.062,90.088,-77.454
0.534,0.389,1.094,13.855,90.881,-80.200
0.517,0.371,1.040,15.381,99.365,-87.097
0.504,0.305,0.824,10.315,106.323,-90.393
0.544,0.316,0.707,-3.662,115.173,-100.342
0.672,0.346,0.485,-7.568,112.549,-105.041
0.693,0.316,0.456,-19.348,103.088,-113.098
0.661,0.187,0.379,-26.794,103.333,-115.234
0.645,0.127,0.306,-31.006,92.651,-111.389
0.703,0.060,0.187,-28.687,77.271,-105.347
0.733,0.002,0.213,-26.123,37.781,-93.994
0.769,-0.129,0.466,-22.766,19.165,-90.027
0.817,-0.143,0.662,-12.939,-4.028,-89.355
0.848,-0.352,0.957,-6.775,-1.526,-94.482
0.834,-0.496,1.115,-4.883,14.648,-93.445
0.680,-0.714,1.560,-0.122,27.466,-86.304
0.527,-0.820,1.711,27.039,66.284,-59.570
0.336,-0.974,1.773,41.382,82.703,-42.114
0.281,-0.982,1.704,58.167,109.680,-15.076
-0.002,-1.011,1.380,63.416,122.681,-6.287
-0.152,-1.065,1.260,70.435,131.409,21.729
-0.405,-1.176,1.082,82.947,133.301,44.434
-0.494,-1.153,0.877,116.638,136.169,104.919
-0.608,-0.975,0.468,120.178,133.911,140.320
-0.647,-0.824,0.333,100.403,132.324,207.458
-0.700,-0.448,-0.038,88.318,132.385,233.643
-0.679,-0.239,-0.232,49.194,122.986,271.667
-0.537,0.285,-0.479,23.193,119.385,285.400
-0.429,0.627,-0.564,-6.165,106.689,289.307
-0.310,1.055,-0.723,4.944,85.999,269.592
-0.328,1.014,-0.901,54.504,26.550,217.957
-0.409,0.741,-1.113,72.205,-15.442,204.163
-0.450,0.621,-0.949,98.022,-101.685,201.355
-0.392,0.776,-0.724,99.182,-125.488,206.055
-0.297,1.068,-0.595,59.998,-150.208,208.496
-0.057,1.696,-0.084,49.866,-158.142,196.533
-0.002,1.845,0.230,84.473,-168.701,146.545
-0.033,1.795,0.266,104.309,-174.194,94.116
-0.018,1.620,0.588,97.839,-179.993,76.721
0.045,1.609,0.860,93.201,-182.861,64.331
0.223,1.748,1.214,99.365,-168.823,40.588
0.293,1.785,1.178,91.125,-135.071,6.470
0.446,1.715,1.102,77.148,-128.479,-12.085
0.486,1.568,1.248,76.782,-130.981,-52.979
0.415,1.225,1.244,91.980,-125.488,-70.862
0.339,1.085,1.186,99.182,-125.488,-91.003
0.279,0.860,1.320,92.712,-126.038,-93.079
0.312,0.788,1.312,79.895,-113.525,-94.543
0.318,0.624,1.199,69.824,-109.985,-96.558
0.297,0.569,1.258,44.006,-109.070,-97.168
0.280,0.522,1.365,41.321,-104.675,-96.252
0.296,0.496,1.398,42.908,-101.807,-95.642
0.301,0.405,1.555,37.476,-98.450,-96.069
0.288,0.390,1.591,30.090,-89.478,-96.497
0.259,0.367,1.564,12.634,-66.162,-101.318
0.227,0.290,1.633,1.770,-59.998,-102.234
0.250,0.254,1.707,-2.258,-44.128,-100.525
0.324,0.162,1.598,2.808,-32.227,-100.769
0.301,0.008,1.514,0.732,-16.968,-102.112
0.268,-0.066,1.525,-11.414,-6.409,-95.764
0.182,-0.227,1.538,-10.132,-1.953,-90.149
0.163,-0.294,1.486,2.869,9.399,-74.219
0.208,-0.310,1.266,3.967,15.320,-63.477
0.227,-0.285,1.200,0.854,18.860,-53.589
0.227,-0.230,1.053,0.916,23.254,-42.542
0.238,-0.238,0.932,3.662,25.757,-41.016
0.253,-0.262,0.842,-7.874,26.794,-36.438
0.245,-0.264,0.779,-17.517,27.527,-30.701
0.224,-0.243,0.745,-21.362,27.588,-17.639
0.194,-0.198,0.673,-16.541,23.682,-11.658
0.207,-0.155,0.671,-10.010,10.925,-0.183
0.260,0.006,0.701,-11.963,7.690,4.333
0.297,0.094,0.723,-16.724,5.066,7.141
0.301,0.139,0.789,-13.977,3.906,4.517
0.288,0.120,0.792,-5.066,3.357,1.953
0.301,0.166,0.835,-6.165,2.808,3.418
0.308,0.204,0.845,-7.202,3.723,4.639
0.323,0.243,0.849,-4.150,1.343,4.578
0.334,0.270,0.885,4.211,-5.920,3.357
0.345,0.303,0.920,7.141,-5.493,1.099
0.332,0.279,0.948,6.958,-3.723,-1.343
0.312,0.255,0.957,3.906,2.686,-2.625
0.292,0.233,0.916,3.723,4.028,-1.953
0.288,0.233,0.903,6.714,2.563,-0.122
0.303,0.251,0.854,8.240,1.160,0.610
0.308,0.251,0.855,9.949,-3.113,0.061
0.300,0.210,0.860,8.362,-3.174,-0.427
0.288,0.195,0.877,0.366,-0.916,0.549
0.290,0.218,0.870,-1.099,0.122,1.343
0.301,0.239,0.874,-1.831,-2.014,0.793
0.305,0.240,0.900,-3.296,-2.319,0.305
0.303,0.244,0.901,-4.395,-1.648,0.610
0.315,0.264,0.901,-1.221,-2.625,1.160
0.323,0.264,0.937,0.427,-4.883,0.366
0.326,0.270,0.968,-0.732,-3.113,-1.831
0.332,0.290,0.991,-3.174,-0.793,-2.991
0.337,0.290,1.039,-7.874,-1.038,-3.479
0.349,0.299,1.164,-6.653,0.061,-3.235
0.348,0.299,1.177,2.808,7.507,-4.333
0.349,0.301,1.098,5.127,11.108,-4.944
0.365,0.299,1.090,-2.014,11.963,-5.249
0.386,0.301,1.145,-3.967,13.184,-5.615
0.385,0.300,1.133,-2.075,18.188,-7.080
0.382,0.306,1.128,-2.563,19.287,-7.324
0.385,0.312,1.125,-3.784,24.475,-8.667
0.382,0.284,1.038,-2.014,27.161,-10.132
0.375,0.256,1.000,-1.892,27.344,-11.353
0.357,0.213,0.961,-3.357,27.710,-10.681
0.352,0.209,0.937,-6.592,28.809,-8.057
0.357,0.217,0.912,-8.362,28.870,-7.202
0.362,0.217,0.916,-10.071,29.114,-6.226
0.364,0.239,0.898,-9.949,29.968,-6.042
0.365,0.243,0.882,-12.268,29.968,-6.897
0.364,0.224,0.903,-13.306,29.480,-7.141
0.777,-0.505,1.433,-4.150,43.884,-57.495
0.733,-0.530,1.489,-32.288,66.467,-45.471
0.605,-0.535,1.622,-45.044,82.458,-40.710
0.516,-0.552,1.585,-57.068,129.883,-31.250
0.355,-0.588,1.351,-58.777,150.513,-25.146
0.224,-0.647,1.251,-37.354,170.959,-8.545
0.010,-0.746,0.854,-7.141,170.410,5.554
-0.049,-0.733,0.605,50.171,141.174,44.922
-0.095,-0.582,0.527,67.627,118.225,66.956
-0.111,-0.473,0.548,102.966,96.802,104.065
-0.225,-0.259,0.121,111.694,100.281,118.347
-0.200,-0.096,-0.216,67.871,101.807,144.531
-0.173,0.014,-0.168,50.354,86.914,149.597
-0.235,-0.071,-0.169,83.191,71.350,160.767
-0.297,0.026,-0.559,92.590,64.331,174.133
-0.325,0.166,-0.650,80.322,25.146,195.740
-0.325,0.458,-0.588,77.942,-2.014,200.500
-0.259,0.580,-0.463,83.557,-45.593,203.308
-0.131,0.892,-0.371,83.679,-53.223,204.407
-0.077,1.102,-0.342,78.674,-58.472,202.759
0.010,1.294,-0.064,72.449,-84.534,181.091
0.030,1.265,0.108,76.050,-97.778,166.626
0.048,1.247,0.240,82.092,-105.164,149.353
0.098,1.369,0.397,83.618,-105.652,145.935
0.141,1.445,0.445,84.167,-106.873,132.690
0.207,1.461,0.548,77.087,-106.079,121.704
0.228,1.514,0.633,59.326,-104.675,99.304
0.299,1.577,0.910,61.707,-106.201,83.374
0.320,1.491,0.992,77.454,-102.539,45.959
0.307,1.318,1.092,76.965,-101.257,33.508
0.294,1.326,1.149,69.153,-99.121,15.442
0.289,1.374,1.249,68.970,-98.022,3.052
0.314,1.331,1.280,73.730,-95.703,-12.146
0.315,0.910,1.184,90.942,-84.534,-46.875
0.243,0.660,1.141,88.379,-78.796,-57.617
0.178,0.538,1.169,56.335,-71.777,-51.575
0.217,0.672,1.234,45.349,-69.702,-45.349
0.290,0.755,1.272,40.161,-65.247,-50.171
0.368,0.722,1.295,38.635,-59.448,-58.350
0.362,0.632,1.231,27.832,-46.326,-70.068
0.308,0.552,1.180,17.700,-46.082,-70.190
0.293,0.574,1.219,8.667,-50.781,-69.275
0.305,0.600,1.246,13.428,-52.002,-71.594
0.330,0.549,1.233,30.518,-54.810,-81.299
0.361,0.371,1.224,32.959,-53.833,-85.388
0.360,0.318,1.191,13.916,-44.006,-84.717
0.311,0.277,1.254,-0.549,-40.894,-82.520
0.285,0.249,1.290,-8.545,-37.170,-81.299
0.299,0.173,1.211,-3.845,-28.503,-80.688
0.332,0.124,1.157,0.244,-26.428,-80.017
0.347,0.063,1.163,2.075,-28.137,-76.416
0.317,-0.019,1.182,1.953,-26.123,-72.632
0.311,-0.008,1.157,-4.700,-20.020,-64.880
0.284,0.005,1.162,-9.583,-18.005,-63.293
0.277,-0.040,1.174,-11.292,-13.123,-61.401
0.272,-0.101,1.175,-9.949,-9.827,-58.044
0.274,-0.081,1.147,-7.629,-3.235,-50.049
0.286,-0.067,1.099,-7.507,-0.366,-47.180
0.297,-0.064,1.039,-8.423,7.935,-41.992
0.324,-0.071,0.946,-9.705,8.545,-39.429
0.314,-0.099,0.958,-5.920,5.737,-34.546
0.271,-0.153,0.915,-1.465,5.859,-30.396
0.289,-0.064,0.908,-3.174,4.028,-19.897
0.302,-0.014,0.927,-4.089,2.441,-15.991
0.322,0.079,0.922,-2.869,3.479,-14.954
0.318,0.103,0.924,-3.662,5.981,-12.817
0.328,0.125,0.870,-2.869,15.442,-8.240
0.312,0.117,0.852,-0.854,15.808,-10.132
0.284,0.115,0.865,3.052,7.690,-11.169
0.296,0.123,0.831,6.592,7.080,-9.460
0.306,0.119,0.813,5.920,3.784,-6.226
0.296,0.087,0.813,4.517,1.831,-5.005
0.293,0.095,0.824,2.136,0.427,-1.709
0.294,0.162,0.862,2.136,1.648,-0.305
0.301,0.186,0.862,0.427,5.127,0.671
0.301,0.193,0.890,-3.052,4.944,1.465
0.312,0.226,0.890,-5.554,1.770,3.540
0.316,0.264,0.928,-5.981,-1.343,2.930
0.302,0.250,0.954,-5.493,-2.441,1.404
0.294,0.229,0.952,-3.723,0.000,1.831
0.302,0.235,0.943,0.793,3.174,2.991
0.303,0.240,0.909,2.625,3.723,2.625
0.299,0.232,0.891,2.258,3.967,1.648
0.300,0.237,0.880,-2.686,3.845,0.854
0.307,0.248,0.872,-3.296,3.479,0.671
0.299,0.227,0.877,-0.610,2.075,1.099
0.293,0.220,0.870,1.221,0.732,2.319
0.298,0.237,0.876,0.366,-2.502,3.296
0.288,0.223,0.896,-0.061,-1.343,2.502
0.285,0.220,0.884,-0.427,2.197,2.808
0.307,0.254,0.907,-1.831,1.404,2.869
0.301,0.248,0.922,-1.892,0.732,2.441
0.303,0.254,0.900,2.319,1.160,2.747
0.322,0.281,0.915,0.671,-1.648,2.075
0.310,0.266,0.958,-3.113,-2.808,0.244
0.294,0.239,0.933,0.366,-1.038,0.854
0.325,0.301,0.917,2.441,-3.357,1.465
0.320,0.293,0.940,-0.427,-4.517,-0.671
0.289,0.214,0.949,-0.916,-0.488,-2.747
0.286,0.206,0.932,2.075,1.221,-1.038
0.315,0.264,0.914,3.296,-1.282,2.563
0.323,0.293,0.936,-1.038,-3.296,2.197
0.291,0.240,0.979,-3.845,-0.549,-1.587
0.286,0.231,0.951,-0.732,2.563,-1.160
0.313,0.266,0.925,2.014,1.343,1.160
0.311,0.257,0.937,0.916,-1.404,0.671
0.302,0.233,0.945,-0.610,-0.916,0.732
0.301,0.243,0.946,-0.549,0.244,1.770
0.305,0.269,0.930,1.648,1.404,2.014
0.309,0.273,0.931,1.221,0.549,1.221
0.315,0.289,0.930,-3.235,0.549,0.000
0.311,0.270,0.921,-4.333,1.526,-1.404
0.299,0.242,0.936,-2.747,2.014,-2.075
0.286,0.225,0.961,0.488,2.014,-0.977
0.284,0.232,0.951,7.446,3.418,1.160
0.306,0.256,0.854,5.432,3.723,1.709
0.323,0.272,0.872,-7.324,-1.038,0.793
0.311,0.265,0.920,-6.592,-0.244,-0.916
0.294,0.233,0.906,-0.427,1.770,-1.404
0.655,-0.453,1.604,-51.025,94.055,-40.710
0.614,-0.449,1.562,-36.560,124.756,-26.123
0.495,-0.450,1.320,-22.766,134.827,-18.127
0.418,-0.447,1.118,7.324,143.555,0.732
0.295,-0.445,0.753,21.423,136.902,10.437
0.225,-0.464,0.690,49.744,106.323,30.701
0.056,-0.492,0.540,63.660,98.633,43.518
-0.012,-0.469,0.363,80.994,95.947,70.923
-0.073,-0.331,-0.072,79.529,93.933,83.618
-0.104,-0.276,-0.219,70.801,85.876,102.966
-0.228,-0.287,-0.383,69.641,82.153,112.732
-0.252,-0.275,-0.473,73.730,57.800,142.517
-0.280,-0.092,-0.622,69.214,39.551,156.860
-0.267,0.022,-0.627,62.988,-4.395,179.993
-0.132,0.461,-0.459,63.660,-22.888,190.002
-0.063,0.687,-0.436,73.120,-36.377,185.242
0.026,0.923,-0.311,67.444,-42.969,171.204
0.050,0.948,-0.112,57.007,-64.514,141.113
0.048,0.995,0.065,67.627,-71.289,130.493
0.066,0.994,0.132,78.613,-81.604,122.559
0.095,0.985,0.299,82.397,-102.539,115.051
0.184,1.129,0.435,79.163,-98.328,114.868
0.234,1.234,0.466,74.036,-94.238,105.286
0.307,1.241,0.581,79.773,-101.807,94.299
0.329,1.200,0.706,88.806,-118.225,73.608
0.329,1.152,0.936,89.355,-117.981,63.660
0.281,1.124,1.018,83.984,-108.887,42.053
0.253,0.996,1.115,86.426,-107.971,31.433
0.274,0.811,1.201,113.220,-112.183,9.827
0.330,0.457,1.018,119.141,-103.394,6.165
0.396,0.570,0.891,88.989,-101.135,17.700
0.375,0.915,1.053,74.219,-108.276,12.085
0.308,0.895,1.141,64.636,-108.398,-18.555
0.258,0.772,1.305,61.279,-105.347,-29.724
0.252,0.684,1.379,56.396,-98.999,-39.185
0.235,0.589,1.384,36.560,-76.111,-50.781
0.202,0.542,1.321,22.217,-71.350,-49.255
0.201,0.661,1.414,16.663,-73.669,-43.640
0.257,0.831,1.446,29.297,-63.843,-51.331
0.276,0.784,1.354,41.870,-49.194,-76.477
0.241,0.587,1.410,33.813,-47.729,-84.412
0.192,0.511,1.493,26.062,-39.001,-90.210
0.124,0.370,1.351,28.442,-32.654,-90.393
0.147,0.331,1.289,26.611,-37.842,-87.097
0.203,0.258,1.328,21.179,-37.109,-85.937
0.218,0.235,1.287,8.179,-23.560,-83.252
0.195,0.147,1.227,2.747,-21.484,-82.703
0.186,0.102,1.234,-2.930,-21.362,-81.787
0.210,0.109,1.340,-14.648,-19.470,-77.576
0.225,0.090,1.341,-15.198,-14.343,-77.332
0.203,-0.083,1.326,-14.282,-4.333,-79.163
0.183,-0.140,1.327,-17.334,0.000,-76.599
0.174,-0.174,1.327,-18.005,5.432,-67.322
0.183,-0.166,1.287,-14.954,7.874,-62.561
0.204,-0.158,1.225,-16.968,14.099,-54.993
0.241,-0.184,1.134,-18.127,15.137,-52.185
0.244,-0.207,1.096,-12.512,12.634,-47.302
0.216,-0.240,1.059,-8.789,10.010,-44.800
0.209,-0.234,1.054,-10.010,10.742,-34.973
0.229,-0.186,1.019,-14.587,14.038,-29.053
0.245,-0.165,0.947,-21.912,19.897,-20.142
0.279,-0.105,0.867,-25.452,18.433,-18.188
0.264,-0.099,0.886,-24.963,16.418,-19.348
0.226,-0.149,0.866,-22.217,18.555,-18.066
0.223,-0.139,0.817,-19.409,18.738,-9.705
0.276,-0.064,0.793,-19.714,13.000,-5.310
0.313,0.010,0.868,-21.301,2.258,-1.465
0.321,0.072,0.963,-17.700,4.028,-4.395
0.287,0.033,0.951,-12.146,12.390,-8.484
0.262,0.037,0.949,-10.803,12.695,-6.714
0.271,0.075,0.969,-4.395,11.230,-1.709
0.277,0.154,0.896,-1.831,14.099,0.000
0.276,0.179,0.835,0.610,14.709,-0.427
0.250,0.150,0.814,2.502,11.292,-1.465
0.234,0.135,0.800,5.676,6.287,-1.770
0.246,0.178,0.790,2.808,3.845,-0.916
0.262,0.214,0.827,-2.625,0.427,0.916
0.281,0.261,0.858,-0.549,1.343,0.977
0.273,0.260,0.830,2.258,4.517,-0.427
0.265,0.255,0.788,0.183,3.113,-0.732
0.273,0.261,0.814,-0.793,-7.141,-2.197
0.275,0.246,0.892,3.052,-10.498,-2.991
0.269,0.229,0.898,6.531,-10.315,-2.808
0.257,0.187,0.925,8.118,-10.376,0.549
0.266,0.188,0.932,11.414,-11.780,2.808
0.276,0.206,0.928,14.893,-13.123,3.235
0.286,0.188,0.939,13.672,-13.245,2.747
0.286,0.165,0.923,8.850,-11.902,3.540
0.262,0.154,0.885,8.362,-16.785,3.418
0.268,0.163,0.903,11.658,-36.316,0.488
0.259,0.160,1.009,9.888,-41.748,0.549
0.236,0.149,1.029,4.150,-28.931,2.747
0.225,0.126,0.978,0.854,-18.433,2.686
0.230,0.132,0.971,-5.859,-8.240,2.686
0.255,0.210,1.002,-6.653,-7.263,3.662
0.257,0.239,1.000,-6.287,-6.287,3.967
0.246,0.215,0.997,-5.859,-2.014,0.549
0.237,0.191,1.007,-5.554,-0.610,-0.916
0.230,0.170,1.005,-2.258,1.465,-0.244
0.221,0.150,0.966,0.305,1.709,1.282
0.228,0.162,0.942,0.854,0.000,4.272
0.248,0.209,0.964,-1.892,-1.221,4.761
0.252,0.221,0.989,-3.662,0.977,3.540
0.251,0.206,0.954,-2.686,4.333,2.441
0.251,0.199,0.930,-4.272,6.287,1.465
0.237,0.163,0.933,-4.456,4.578,1.648
0.234,0.153,0.937,-2.869,0.793,4.028
0.241,0.180,0.941,-3.174,0.427,5.127
0.241,0.179,0.944,-4.456,2.747,5.066
0.235,0.168,0.960,-4.883,3.601,5.249
0.240,0.198,0.949,-5.188,4.700,6.165
0.252,0.251,0.943,-5.554,4.395,4.822
0.244,0.237,0.949,-3.662,3.113,1.282
0.240,0.200,0.976,-1.770,1.587,1.282
0.239,0.199,0.975,0.061,0.916,2.686
0.244,0.223,0.966,-0.671,1.343,2.747
0.242,0.223,0.960,0.122,1.709,2.319
0.240,0.212,0.909,4.211,3.296,1.953
0.244,0.226,0.901,2.136,2.502,2.197
0.568,-0.511,1.448,-61.157,113.892,-40.833
0.578,-0.517,1.429,-42.908,108.643,-28.992
0.568,-0.559,1.393,-35.522,104.980,-16.479
0.547,-0.589,1.239,-43.762,109.436,-6.653
0.541,-0.512,1.156,-56.580,117.493,10.864
0.535,-0.394,1.042,-54.749,119.446,13.245
0.493,-0.451,0.957,-50.293,128.418,12.451
0.405,-0.547,0.743,-53.833,129.517,17.700
0.392,-0.512,0.660,-54.932,117.004,33.691
0.377,-0.530,0.456,-53.467,110.840,39.673
0.380,-0.557,0.359,-70.435,99.243,56.702
0.380,-0.365,0.485,-84.900,92.773,65.674
0.364,-0.244,0.611,-77.271,96.130,69.641
0.234,-0.409,0.600,-58.899,104.004,67.322
0.156,-0.548,0.510,-19.409,102.722,83.374
0.045,-0.693,0.348,1.709,94.727,101.868
-0.048,-0.714,0.134,30.029,84.961,144.836
-0.201,-0.764,-0.368,20.142,73.242,164.673
-0.233,-0.789,-0.308,-23.987,44.678,202.332
-0.312,-0.566,-0.289,-32.654,40.649,218.750
-0.333,-0.290,-0.212,-35.767,29.968,231.873
-0.381,0.313,0.021,-16.357,3.784,242.371
-0.407,0.431,0.025,7.080,6.042,237.061
-0.400,0.459,-0.000,64.514,18.799,227.173
-0.300,0.613,-0.028,86.243,20.386,229.248
-0.245,0.796,-0.069,92.529,8.240,224.304
-0.190,1.189,-0.046,83.435,-7.080,208.740
-0.181,1.300,0.091,74.158,-39.978,164.978
-0.157,1.376,0.371,79.163,-47.119,143.677
-0.125,1.372,0.459,99.426,-47.363,106.506
-0.085,1.350,0.538,110.535,-44.434,92.041
-0.082,1.329,0.531,134.094,-40.588,65.125
-0.037,1.183,0.656,144.287,-43.274,52.673
-0.015,1.092,0.713,153.137,-40.710,35.583
0.007,0.919,0.706,144.348,-39.001,29.724
0.016,0.859,0.729,129.700,-41.504,23.865
0.072,0.745,0.783,123.901,-54.687,9.766
0.117,0.665,0.803,129.883,-63.660,2.808
0.140,0.611,0.835,114.258,-80.078,-2.991
0.126,0.751,1.005,94.971,-84.473,-3.113
0.110,0.846,1.079,85.144,-79.956,-19.104
0.099,0.837,1.106,91.187,-75.439,-32.349
0.107,0.785,1.139,89.783,-68.542,-50.781
0.105,0.639,1.123,82.764,-63.782,-56.030
0.093,0.560,1.105,60.364,-78.430,-55.969
0.031,0.568,1.285,53.345,-84.290,-54.321
0.029,0.613,1.316,61.401,-64.636,-63.049
0.098,0.549,1.338,65.674,-56.213,-71.716
0.140,0.477,1.332,56.091,-41.504,-78.552
0.128,0.435,1.330,47.485,-36.194,-78.308
0.093,0.424,1.326,41.809,-35.461,-81.726
0.071,0.345,1.378,40.161,-38.696,-84.656
0.099,0.268,1.386,39.246,-39.612,-86.426
0.129,0.177,1.346,36.316,-31.738,-84.045
0.144,0.066,1.240,29.785,-29.968,-80.627
0.138,0.038,1.231,9.277,-37.231,-75.378
0.133,0.008,1.297,0.305,-39.673,-73.608
0.153,0.016,1.332,-7.446,-28.687,-69.580
0.201,-0.010,1.330,-4.578,-19.348,-68.237
0.211,-0.033,1.280,-1.038,-2.869,-65.796
0.187,0.008,1.189,-5.798,-0.610,-66.895
0.172,0.022,1.184,-19.287,-6.592,-82.397
0.192,-0.102,1.209,-18.799,-9.888,-87.158
0.184,-0.187,1.222,-11.841,-14.282,-70.313
0.183,-0.189,1.134,-9.705,-14.221,-55.969
0.191,-0.134,1.050,-7.141,-15.320,-37.415
0.185,-0.090,0.971,-12.939,-18.433,-35.889
0.176,-0.102,0.994,-25.391,-19.958,-38.147
0.163,-0.100,1.037,-26.855,-15.625,-36.438
0.192,0.027,1.009,-29.846,-2.075,-31.738
0.183,0.068,1.007,-34.973,6.714,-39.856
0.142,0.026,1.005,-32.043,11.047,-46.997
0.125,-0.011,0.991,-18.066,17.517,-51.270
0.129,-0.010,0.943,-11.536,17.456,-46.753
0.139,0.000,0.932,-5.798,12.268,-35.461
0.167,0.041,0.910,-4.211,10.071,-29.114
0.166,0.098,0.913,-2.258,6.287,-16.296
0.157,0.088,0.941,0.488,0.793,-5.737
0.152,0.115,0.912,3.845,0.244,-1.282
0.154,0.113,0.876,12.512,-4.272,0.916
0.158,0.103,0.855,13.367,-9.766,1.404
0.154,0.109,0.876,6.775,-20.081,2.686
0.135,0.107,0.930,4.822,-22.217,2.930
0.124,0.109,0.935,4.028,-21.301,4.333
0.118,0.123,0.954,2.625,-20.447,4.761
0.114,0.126,0.969,-0.549,-15.564,5.188
0.116,0.153,0.974,-1.343,-11.353,5.493
0.113,0.156,0.969,-1.770,-3.052,4.089
0.096,0.116,0.955,-2.136,0.427,3.357
0.095,0.125,0.945,-2.136,2.625,5.005
0.096,0.166,0.960,-2.563,0.549,4.639
0.090,0.163,0.974,-2.502,-4.333,3.113
0.097,0.176,0.979,-0.793,-6.531,3.906
0.096,0.179,0.974,3.967,-11.902,5.066
0.104,0.163,0.956,4.517,-14.832,4.761
0.097,0.157,0.960,5.371,-19.470,5.676
0.083,0.169,0.964,5.676,-19.409,7.080
0.081,0.166,0.975,2.258,-16.724,7.568
0.075,0.189,1.009,-0.549,-12.573,7.751
0.071,0.190,1.022,-0.488,0.305,6.653
0.076,0.167,0.956,1.282,5.737,6.653
0.085,0.176,0.937,-1.099,3.296,5.798
0.090,0.154,0.949,-1.953,-0.732,5.066
0.090,0.161,0.964,-4.395,-6.042,6.836
0.077,0.187,1.016,-6.287,-6.042,7.080
0.076,0.207,1.037,-5.981,-1.343,6.714
0.074,0.221,1.028,-4.333,2.380,5.981
0.074,0.215,1.015,-2.625,5.432,4.089
0.079,0.203,0.986,-1.282,4.822,3.723
0.085,0.201,0.964,-2.014,2.014,3.967
0.093,0.228,0.985,-3.906,-0.610,3.967
0.086,0.224,0.999,-0.244,-2.014,2.014
0.078,0.198,0.970,2.502,-0.977,1.892
0.075,0.191,0.968,-0.061,0.427,2.808
0.070,0.184,0.980,-1.770,0.854,2.747
0.071,0.183,0.973,-1.648,0.916,2.808
0.073,0.186,0.962,0.000,-0.488,3.540
0.073,0.188,0.978,-0.732,-1.648,3.540
0.073,0.193,0.988,-1.221,-1.404,2.991
0.937,-0.661,1.396,-85.937,89.539,-88.013
0.918,-0.706,1.347,-92.346,115.356,-61.523
0.893,-0.801,1.012,-95.581,127.808,-49.866
0.887,-0.938,0.792,-102.600,132.385,-29.968
0.707,-1.256,0.293,-104.675,125.732,-12.817
0.592,-1.349,0.039,-87.891,85.205,45.837
0.358,-1.321,-0.129,-64.697,47.729,79.895
0.240,-1.257,-0.059,7.568,-18.921,139.282
-0.029,-1.116,0.107,37.476,-43.884,162.781
-0.271,-0.930,0.206,62.439,-76.965,208.801
-0.331,-0.701,0.110,60.974,-70.923,233.215
-0.368,-0.252,0.001,32.715,-59.753,256.531
-0.412,-0.150,0.061,16.052,-69.031,255.188
-0.459,-0.079,0.138,-9.277,-78.552,262.878
-0.491,0.465,0.107,-14.771,-76.782,271.912
-0.434,0.903,0.169,-1.953,-80.811,249.695
-0.417,1.089,0.328,25.574,-75.806,216.858
-0.467,0.926,0.192,55.969,-52.856,171.692
-0.526,0.826,0.202,42.725,-56.091,162.903
-0.516,0.955,0.448,42.969,-71.289,151.184
-0.446,1.215,0.642,71.289,-61.157,139.526
-0.403,1.225,0.538,109.741,-39.246,105.713
-0.336,1.303,0.440,105.896,-38.574,93.079
-0.334,1.371,0.459,103.516,-39.124,65.491
-0.360,1.230,0.489,115.173,-41.321,48.828
-0.352,1.136,0.562,135.559,-49.866,22.034
-0.313,0.909,0.703,138.245,-51.392,10.498
-0.294,0.781,0.777,116.699,-58.716,-7.629
-0.272,0.711,1.050,102.539,-62.683,-13.000
-0.249,0.747,1.177,106.262,-62.500,-24.109
-0.169,0.690,1.195,115.601,-69.153,-29.114
-0.144,0.622,1.293,117.615,-77.148,-38.818
-0.099,0.478,1.443,117.737,-59.937,-47.058
-0.073,0.431,1.477,121.887,-28.870,-66.040
0.035,0.297,1.430,126.953,-18.372,-78.369
0.088,0.190,1.364,126.831,-6.104,-95.520
0.106,-0.047,1.245,112.854,-4.822,-96.313
0.110,-0.075,1.266,69.214,-17.273,-79.407
0.152,0.118,1.408,52.246,-24.414,-71.533
0.189,0.243,1.481,38.635,-23.071,-78.186
0.243,0.100,1.512,40.405,-15.564,-88.196
0.232,-0.047,1.487,34.302,-4.395,-95.032
0.150,-0.154,1.506,24.170,-2.563,-91.858
0.119,-0.127,1.528,6.042,-0.793,-82.581
0.178,-0.005,1.535,1.892,2.869,-79.163
0.233,-0.017,1.438,5.127,17.639,-80.933
0.266,-0.156,1.243,2.014,17.029,-82.092
0.237,-0.182,1.277,-24.170,1.099,-82.642
0.140,-0.168,1.425,-32.593,-1.160,-82.092
0.138,-0.178,1.380,-25.024,14.771,-73.364
0.215,-0.139,1.146,-17.883,22.644,-65.674
0.254,-0.098,1.076,-14.893,23.376,-55.237
0.243,-0.121,1.082,-20.142,21.362,-53.711
0.221,-0.131,1.112,-38.452,24.841,-50.293
0.203,-0.147,1.160,-46.753,31.250,-47.974
0.216,-0.170,1.121,-40.161,46.265,-39.124
0.234,-0.246,0.987,-28.259,46.387,-33.325
0.227,-0.257,0.938,-13.306,33.630,-20.386
0.219,-0.195,0.912,-14.221,25.879,-14.587
0.219,-0.149,0.948,-26.917,18.494,-9.399
0.215,-0.084,0.915,-29.114,21.057,-9.033
0.218,-0.055,0.875,-25.391,21.973,-8.179
0.227,-0.046,0.850,-22.766,19.836,-7.202
0.233,-0.029,0.827,-18.921,18.555,-3.479
0.239,0.031,0.763,-18.738,17.273,-3.235
0.231,0.077,0.745,-19.958,9.094,-11.780
0.246,0.067,0.755,-18.738,1.526,-20.264
0.240,0.025,0.793,-19.653,-10.620,-22.827
0.238,0.079,0.856,-18.005,-8.728,-17.029
0.230,0.097,0.902,-13.611,4.700,-10.864
0.222,0.077,0.924,-12.695,14.343,-9.949
0.227,0.099,0.881,-13.428,25.757,-6.836
0.293,0.158,0.862,-12.878,20.813,-7.019
0.298,0.162,0.889,-3.662,2.197,-11.963
0.283,0.151,0.899,2.869,-4.761,-13.306
0.272,0.163,0.903,6.104,-10.864,-13.306
0.268,0.165,0.916,3.967,-17.822,-13.977
0.287,0.162,0.946,2.563,-18.005,-13.550
0.297,0.166,0.960,2.136,-16.357,-10.620
0.264,0.108,0.981,2.991,-14.832,-9.644
0.238,0.087,0.993,3.784,-11.414,-3.906
0.223,0.143,1.015,4.517,-9.094,0.183
0.221,0.187,1.021,9.277,-0.488,2.869
0.205,0.201,0.989,10.010,6.165,-0.061
0.196,0.183,0.963,4.272,17.212,-7.141
0.195,0.188,0.951,1.526,18.677,-8.545
0.201,0.183,0.942,1.648,17.822,-10.132
0.215,0.120,0.886,1.831,17.700,-11.292
0.218,0.077,0.863,1.282,17.700,-11.536
0.230,0.070,0.842,-3.418,16.785,-7.568
0.266,0.101,0.834,-6.958,14.526,-6.653
0.278,0.095,0.849,-13.550,9.766,-7.507
0.287,0.069,0.873,-15.320,7.629,-7.385
0.284,0.051,0.904,-14.587,-0.671,-2.625
0.296,0.101,0.944,-12.939,-3.662,1.465
0.300,0.148,0.947,-5.127,-5.737,4.944
0.309,0.200,0.949,-1.221,-5.798,4.944
0.307,0.215,0.982,0.366,-2.991,4.211
0.283,0.162,1.014,3.906,1.892,3.296
0.285,0.137,0.987,9.033,6.226,3.723
0.286,0.131,0.956,16.235,7.874,6.775
0.283,0.127,0.907,15.564,6.470,7.446
0.283,0.117,0.932,8.240,3.662,7.202
0.253,0.059,0.951,8.972,4.578,8.179
0.231,0.049,0.987,17.639,0.427,15.503
0.219,0.141,1.030,23.499,1.099,19.348
0.228,0.198,0.951,24.475,7.202,17.517
0.234,0.183,0.929,15.625,4.761,13.062
0.220,0.179,1.002,5.554,2.747,10.010
0.199,0.193,0.994,4.211,13.184,6.653
0.223,0.184,0.879,6.409,12.817,3.174
0.255,0.101,0.923,13.000,-1.099,-2.869
0.267,0.063,1.039,16.296,-3.967,0.549
0.274,0.080,1.120,29.663,-4.639,8.972
0.282,0.098,1.283,38.696,0.427,10.376
0.283,0.145,1.148,48.523,16.235,6.226
0.313,0.109,0.925,47.546,4.089,-1.587
0.300,0.026,1.084,37.903,-30.884,-14.282
0.255,-0.104,1.193,40.894,-30.212,-12.878
0.734,-1.083,0.870,-32.349,137.756,-75.195
0.699,-1.338,0.593,-15.625,156.616,-27.832
0.594,-1.715,-0.067,-4.822,136.292,5.859
0.518,-1.799,-0.117,1.648,44.434,82.031
0.338,-1.713,0.044,0.061,14.893,119.507
0.259,-1.509,0.121,-6.836,11.169,179.565
0.000,-1.157,0.097,-7.996,23.132,201.111
-0.135,-1.035,-0.063,20.081,21.790,248.535
-0.221,-0.636,-0.166,30.701,-2.197,267.334
-0.265,-0.362,-0.020,42.053,-49.988,270.996
-0.342,-0.064,0.223,51.697,-51.514,265.015
-0.412,0.169,0.607,52.551,-54.993,250.732
-0.381,0.479,0.923,45.349,-60.730,241.638
-0.294,1.058,1.081,42.725,-21.179,210.632
-0.270,1.177,0.922,45.532,14.832,189.697
-0.238,1.330,0.708,-15.320,83.618,157.715
0.027,1.756,0.383,-43.762,100.647,138.428
0.211,1.834,0.491,-3.784,47.363,67.139
0.368,1.589,0.503,53.711,11.292,24.841
0.358,1.311,0.410,103.821,-43.579,-32.776
0.245,0.757,0.418,83.923,-59.509,-45.166
0.204,0.572,0.284,52.490,-78.125,-43.030
0.247,0.558,0.397,48.096,-106.873,-39.429
0.328,0.677,0.808,67.017,-164.368,-42.603
0.488,0.982,1.234,79.895,-156.067,-52.185
0.496,0.931,1.119,77.881,-104.736,-75.684
0.447,0.541,0.929,60.852,-90.515,-77.332
0.429,0.364,0.925,17.212,-73.669,-58.167
0.515,0.401,1.065,0.610,-64.453,-44.312
0.586,0.517,1.185,-4.456,-56.824,-44.067
0.725,0.606,1.309,0.854,-59.265,-61.951
0.714,0.514,1.281,9.888,-74.646,-108.521
0.624,0.262,1.228,12.817,-86.548,-120.911
0.607,0.226,1.337,13.062,-97.900,-123.840
0.620,0.222,1.497,2.808,-79.834,-117.187
0.668,0.189,1.572,-3.967,-49.316,-113.220
0.700,0.168,1.500,-13.550,-2.563,-113.586
0.732,0.210,1.467,-18.433,8.606,-116.272
0.716,0.211,1.449,-26.489,31.067,-137.939
0.670,0.052,1.346,-31.677,44.495,-153.503
0.653,-0.031,1.288,-45.776,65.979,-165.527
0.639,-0.180,1.209,-55.237,76.904,-156.128
0.641,-0.198,1.210,-64.941,101.562,-123.169
0.607,-0.161,1.005,-64.880,108.276,-111.145
0.604,-0.160,0.913,-72.021,84.473,-90.149
0.623,-0.125,0.965,-69.092,75.928,-77.820
0.625,-0.108,0.956,-60.181,85.388,-64.758
0.646,-0.057,0.859,-63.110,116.028,-39.246
0.748,0.057,0.765,-80.933,108.826,-36.072
0.781,0.091,0.802,-101.440,72.632,-51.453
0.753,0.053,0.788,-100.342,64.270,-62.012
0.734,0.014,0.730,-97.168,52.124,-70.435
0.683,-0.008,0.664,-93.262,44.312,-68.481
0.661,-0.012,0.611,-89.416,31.616,-56.396
0.668,0.037,0.583,-88.257,23.071,-48.462
0.679,0.055,0.617,-79.590,6.104,-36.072
0.695,0.093,0.729,-72.266,1.709,-33.264
0.708,0.116,0.761,-51.941,12.268,-40.039
0.658,0.064,0.604,-36.560,24.780,-46.326
0.635,-0.003,0.511,-20.203,34.363,-47.607
0.634,-0.029,0.497,-11.719,34.607,-29.968
0.650,0.033,0.524,-22.278,29.724,-18.372
0.644,0.074,0.554,-50.537,24.353,-8.606
0.749,0.127,0.612,-58.472,23.865,-7.996
0.757,0.136,0.593,-45.654,15.442,-17.090
0.686,0.066,0.509,-33.508,10.437,-19.165
0.680,0.068,0.500,-27.344,5.798,-6.348
0.692,0.130,0.531,-31.067,6.348,-0.977
0.705,0.143,0.548,-39.551,7.141,2.869
0.803,0.165,0.596,-43.335,5.859,2.136
0.809,0.161,0.597,-44.189,1.892,-8.606
0.738,0.107,0.567,-38.147,-0.671,-12.573
0.716,0.075,0.557,-22.400,-3.967,-7.446
0.742,0.093,0.626,-18.982,-4.211,-0.427
0.792,0.128,0.678,-20.874,5.005,7.324
0.817,0.158,0.656,-19.226,14.893,7.019
0.806,0.166,0.599,-13.855,26.367,7.935
0.803,0.212,0.547,-10.498,23.010,8.057
0.807,0.234,0.556,-2.136,17.090,5.737
0.815,0.217,0.605,22.400,9.399,-5.005
0.808,0.174,0.618,27.283,9.949,-9.766
0.811,0.138,0.612,21.790,16.968,-8.911
0.814,0.149,0.590,18.311,20.264,-5.737
0.812,0.172,0.576,11.475,20.569,-2.686
0.821,0.209,0.576,10.315,21.545,-3.967
0.829,0.224,0.556,12.756,27.100,-9.033
0.823,0.215,0.535,12.512,28.564,-12.512
0.812,0.207,0.502,5.249,23.132,-16.174
0.795,0.180,0.484,6.592,18.127,-16.846
0.781,0.157,0.513,2.686,10.559,-13.977
0.782,0.157,0.529,-4.395,11.719,-10.132
0.780,0.140,0.492,-9.399,17.639,0.000
0.773,0.142,0.469,-8.850,15.503,4.517
0.769,0.163,0.482,-10.742,3.418,11.230
0.793,0.191,0.512,-11.353,-0.488,14.038
0.819,0.222,0.534,-6.226,-1.526,12.085
0.807,0.225,0.522,-4.211,-0.244,8.911
0.801,0.214,0.523,-0.732,1.831,7.263
0.798,0.191,0.525,2.014,3.174,7.507
0.802,0.196,0.514,3.845,4.028,8.179
0.819,0.210,0.504,2.869,2.380,8.118
0.826,0.219,0.513,-1.099,-2.625,8.850
0.828,0.236,0.523,-3.784,-3.601,9.705
0.837,0.243,0.536,-4.578,-3.235,8.484
0.861,0.254,0.553,-0.732,-3.357,5.737
0.856,0.241,0.549,2.197,-4.700,2.441
0.842,0.220,0.543,1.404,-7.874,0.305
0.820,0.205,0.537,0.488,-7.690,1.587
0.812,0.214,0.530,0.854,-3.235,2.747
0.807,0.227,0.514,0.488,-0.793,2.380
0.807,0.230,0.517,-1.343,4.333,1.709
0.817,0.227,0.531,0.427,7.385,1.221
0.833,0.235,0.527,1.892,9.460,-1.648
0.804,0.213,0.485,0.793,8.179,-3.418
0.790,0.203,0.476,0.244,3.845,-1.892
0.823,0.232,0.513,-0.122,2.014,-1.099
0.824,0.219,0.516,0.977,0.610,-2.136
0.808,0.193,0.513,4.272,-2.747,-2.258
0.824,0.215,0.537,1.709,-4.822,-0.305
0.571,1.017,0.911,85.266,-185.913,-21.973
0.583,0.915,1.011,79.956,-182.739,-39.490
0.578,0.695,1.153,79.590,-184.387,-45.898
0.584,0.569,1.170,69.275,-189.331,-45.532
0.693,0.503,1.334,63.354,-192.078,-45.166
0.694,0.472,1.432,59.998,-185.303,-54.932
0.651,0.323,1.545,55.298,-174.316,-56.396
0.649,0.275,1.545,29.663,-143.127,-44.067
0.689,0.348,1.570,14.282,-134.521,-33.508
0.705,0.436,1.691,-6.897,-86.426,-29.297
0.732,0.455,1.453,-14.221,-53.223,-31.921
0.691,0.452,1.369,-27.832,-31.128,-29.114
0.714,0.490,1.288,-27.405,-23.254,-31.860
0.724,0.444,1.209,-7.690,-11.780,-54.199
0.553,0.190,0.922,-0.671,-12.451,-63.599
0.536,0.150,0.897,-9.644,-32.166,-59.204
0.619,0.202,1.153,-14.648,-39.490,-59.509
0.583,0.134,1.188,-12.573,-29.480,-68.787
0.443,0.030,1.128,-13.794,-14.099,-62.927
0.395,0.057,0.981,-20.630,14.771,-47.058
0.347,0.189,0.723,-20.935,9.583,-45.105
0.341,0.262,0.705,-14.038,-19.104,-53.284
0.285,0.310,0.675,-11.780,-27.405,-61.462
0.236,0.314,0.609,-11.108,-36.072,-75.562
0.204,0.376,0.556,-9.155,-44.983,-83.069
0.193,0.396,0.594,-9.460,-65.735,-102.966
0.156,0.352,0.705,-13.000,-70.251,-111.755
0.134,0.307,0.729,-15.137,-70.068,-121.399
0.111,0.278,0.769,-12.695,-71.838,-124.023
0.136,0.264,0.857,3.540,-84.961,-134.583
0.138,0.098,0.985,13.367,-88.318,-139.343
0.133,0.037,1.017,15.259,-87.463,-138.000
0.193,0.096,1.074,-1.953,-77.148,-122.986
0.240,0.138,1.075,-9.216,-70.068,-119.019
0.265,0.148,1.088,-14.343,-61.890,-119.141
0.292,0.104,1.186,-20.081,-57.373,-119.324
0.310,0.050,1.255,-36.743,-42.725,-116.699
0.313,-0.047,1.325,-40.405,-31.982,-111.694
0.312,-0.035,1.289,-37.842,-9.155,-98.877
0.344,-0.040,1.284,-36.682,-4.822,-95.459
0.353,-0.082,1.318,-35.706,-2.869,-89.050
0.368,-0.068,1.374,-36.865,0.244,-83.862
0.358,-0.063,1.336,-34.546,13.489,-76.965
0.346,-0.079,1.271,-27.588,18.433,-75.134
0.325,-0.134,1.216,-15.137,15.015,-70.862
0.310,-0.168,1.231,-14.771,12.573,-66.406
0.310,-0.156,1.215,-18.860,22.644,-51.147
0.324,-0.099,1.191,-22.766,36.804,-38.086
0.339,-0.038,1.144,-22.949,40.588,-36.072
0.334,-0.043,1.133,-24.841,43.274,-32.715
0.309,-0.105,1.094,-28.076,46.082,-28.809
0.309,-0.101,1.068,-32.776,51.453,-16.113
0.330,-0.013,1.010,-31.433,51.819,-11.719
0.344,0.019,0.993,-23.743,44.373,-10.437
0.339,-0.005,0.977,-17.883,39.001,-9.155
0.313,-0.044,0.959,-15.564,34.119,-1.099
0.293,-0.083,0.921,-18.250,33.386,2.563
0.320,-0.052,0.906,-8.789,26.001,5.920
0.336,0.007,0.873,-1.465,19.714,6.897
0.337,0.038,0.861,4.639,8.240,12.512
0.324,0.057,0.887,0.000,5.615,12.817
0.311,0.033,0.897,-6.409,7.202,11.536
0.322,0.034,0.886,-15.503,17.090,11.230
0.336,0.050,0.883,-18.188,21.851,12.085
0.355,0.099,0.859,-14.771,25.635,15.076
0.365,0.118,0.841,-8.911,23.315,15.503
0.390,0.165,0.864,-0.977,11.780,13.428
0.376,0.176,0.872,-2.808,8.057,11.108
0.361,0.156,0.864,-7.874,13.184,5.676
0.353,0.109,0.854,-10.315,18.311,5.066
0.353,0.082,0.846,-16.296,27.222,6.226
0.362,0.093,0.815,-18.250,29.358,8.728
0.371,0.126,0.799,-10.559,26.489,10.620
0.370,0.162,0.732,-5.005,22.827,9.338
0.368,0.179,0.701,6.470,8.301,6.287
0.381,0.169,0.739,11.902,-2.869,4.395
0.373,0.149,0.783,13.306,-12.329,2.991
0.361,0.129,0.818,9.094,-16.785,4.517
0.349,0.111,0.825,8.667,-12.512,7.263
0.357,0.124,0.819,4.517,-4.028,12.451
0.375,0.193,0.835,2.014,-1.404,13.184
0.389,0.208,0.845,8.728,0.916,9.094
0.392,0.185,0.818,13.245,0.061,6.775
0.390,0.182,0.819,14.404,-8.911,6.226
0.403,0.186,0.903,11.230,-13.916,6.287
0.396,0.174,0.898,4.272,-11.414,6.775
0.401,0.197,0.895,0.793,-8.362,7.996
0.409,0.224,0.918,0.610,-3.601,7.324
0.407,0.226,0.879,1.221,-0.244,5.493
0.409,0.232,0.874,-0.610,3.052,3.479
0.412,0.218,0.875,1.160,4.944,2.258
0.415,0.220,0.859,1.953,5.798,1.343
0.423,0.228,0.876,1.038,3.601,0.671
0.415,0.206,0.870,2.441,0.977,-0.427
0.415,0.227,0.849,1.343,-1.160,0.244
0.423,0.247,0.879,-1.221,-6.775,-3.296
0.407,0.180,0.901,0.854,-5.615,-5.188
0.402,0.167,0.882,5.249,-2.075,-1.770
0.404,0.194,0.885,5.554,-3.174,-0.305
0.401,0.179,0.909,-0.183,-6.653,-1.465
0.393,0.157,0.918,-2.686,-2.258,-0.488
0.390,0.158,0.906,-0.488,1.404,0.916
0.398,0.177,0.906,5.310,0.488,1.343
0.409,0.191,0.910,3.906,-3.174,0.488
0.405,0.172,0.927,-2.930,-4.700,0.854
0.399,0.169,0.913,-2.258,-1.709,2.625
0.408,0.194,0.910,3.296,-0.366,3.845
0.423,0.224,0.946,3.967,-1.892,2.319
0.417,0.212,0.953,1.770,2.075,-0.916
0.404,0.189,0.913,1.648,6.653,-0.977
0.414,0.198,0.894,1.221,7.996,-1.465
0.419,0.177,0.892,0.183,4.883,-2.197
0.418,0.169,0.905,-0.244,-0.549,-0.732
0.410,0.169,0.905,0.732,-0.671,-0.061
0.408,0.167,0.899,0.793,1.282,0.610
0.414,0.192,0.914,0.305,1.770,0.549
0.409,0.180,0.909,1.038,3.296,-1.160
0.405,0.157,0.891,1.282,3.052,-0.793
0.411,0.178,0.897,1.953,1.465,-0.366
0.862,0.968,0.779,31.677,-31.250,6.897
0.853,0.947,0.770,27.405,-19.043,-7.690
0.836,0.848,0.719,24.963,-14.526,-11.780
0.829,0.844,0.705,19.592,-10.742,-12.329
0.799,0.821,0.675,14.221,-7.080,-14.160
0.764,0.874,0.670,2.258,0.000,-17.029
0.738,0.924,0.673,-4.700,3.418,-20.386
0.700,0.980,0.698,-21.179,9.399,-34.180
0.699,0.944,0.685,-25.635,13.245,-42.175
0.699,0.893,0.591,-24.292,18.250,-54.993
0.707,1.012,0.581,-26.855,16.663,-57.373
0.712,1.326,0.712,-36.560,9.338,-71.533
0.683,1.330,0.753,-39.673,16.602,-108.643
0.628,1.020,0.681,-39.673,23.193,-125.610
0.639,0.890,0.563,-27.344,27.466,-140.198
0.676,0.723,0.539,-20.630,19.897,-143.066
0.662,0.671,0.642,-20.996,13.000,-143.494
0.642,0.578,0.584,-37.964,20.386,-145.447
0.679,0.490,0.495,-49.011,19.226,-151.001
0.755,0.404,0.586,-74.768,-0.488,-146.240
0.732,0.440,0.619,-87.280,0.793,-136.719
0.685,0.427,0.561,-95.581,23.437,-137.512
0.636,0.176,0.384,-93.140,28.015,-143.005
0.667,0.105,0.297,-81.055,23.437,-131.042
0.776,0.102,0.216,-71.594,21.790,-119.995
0.813,0.046,0.246,-60.120,26.428,-121.094
0.836,-0.561,0.353,-56.030,27.832,-125.671
0.811,-0.959,0.329,-52.307,31.250,-100.464
0.748,-1.545,0.092,-44.067,29.602,-73.914
0.708,-1.801,0.060,-10.681,10.193,-16.907
0.490,-2.304,0.036,12.695,5.554,14.526
0.344,-2.522,-0.019,46.204,-2.136,108.765
0.078,-2.331,0.042,46.692,-13.000,172.974
-0.019,-1.826,0.162,50.049,-46.509,277.100
-0.149,-0.601,0.386,62.683,-57.068,297.363
-0.199,-0.103,0.465,78.308,-60.425,299.927
-0.378,0.332,0.237,111.450,-46.936,280.640
-0.503,0.439,0.101,121.338,-51.453,276.001
-0.559,0.682,0.179,122.375,-113.281,301.636
-0.470,1.297,0.711,117.065,-136.780,306.641
-0.407,1.546,0.788,102.600,-117.859,255.493
-0.279,1.678,0.621,96.680,-97.534,207.825
-0.240,1.525,0.532,91.614,-81.238,120.544
-0.228,1.341,0.392,83.740,-84.229,94.849
-0.214,1.375,0.438,63.721,-102.112,60.974
-0.117,1.486,0.614,60.486,-104.614,42.664
-0.050,1.428,0.640,71.045,-95.764,-1.953
0.046,1.139,0.548,79.651,-95.032,-23.865
0.076,0.933,0.612,96.191,-119.324,-56.763
0.099,0.726,1.018,101.440,-131.348,-62.927
0.112,0.768,1.167,121.460,-132.385,-76.721
0.160,0.770,1.229,132.812,-127.686,-90.515
0.174,0.651,1.138,131.958,-121.521,-113.281
0.176,0.494,0.987,115.906,-125.916,-115.784
0.175,0.486,1.078,89.722,-143.066,-116.455
0.151,0.455,1.220,90.759,-143.921,-119.751
0.137,0.406,1.222,98.694,-138.367,-126.709
0.108,0.338,1.146,98.328,-125.061,-129.944
0.120,0.308,1.066,80.627,-118.042,-133.606
0.140,0.309,1.250,71.777,-127.991,-134.033
0.163,0.374,1.406,69.763,-135.559,-135.559
0.165,0.376,1.565,83.557,-136.536,-154.175
0.134,0.220,1.548,87.341,-130.859,-168.884
0.105,-0.055,1.577,64.026,-116.333,-170.593
0.105,-0.030,1.607,41.748,-103.149,-154.785
0.108,0.076,1.599,0.122,-62.317,-132.019
0.102,0.139,1.516,-15.625,-43.213,-132.629
0.096,0.080,1.441,-30.212,-19.409,-135.315
0.097,-0.017,1.336,-25.757,-18.311,-133.179
0.100,-0.056,1.321,5.554,-31.921,-129.456
0.102,-0.148,1.271,15.991,-36.987,-127.502
0.108,-0.172,1.283,7.202,-34.790,-119.080
0.130,-0.181,1.329,-0.977,-27.771,-112.915
0.137,-0.169,1.347,-14.465,-8.606,-102.783
0.127,-0.199,1.408,-16.785,0.916,-98.755
0.122,-0.229,1.396,-13.123,19.714,-87.341
0.134,-0.258,1.277,-11.292,24.902,-78.247
0.145,-0.223,1.233,-17.273,26.123,-62.195
0.140,-0.146,1.187,-25.818,28.259,-60.730
0.129,-0.168,1.152,-37.903,41.260,-63.843
0.134,-0.212,1.061,-35.889,46.570,-58.594
0.134,-0.164,1.051,-31.738,48.218,-48.645
0.132,-0.081,1.039,-27.954,49.744,-30.029
0.136,0.055,1.005,-26.367,48.523,-26.367
0.132,0.024,0.987,-20.081,44.861,-22.949
0.137,-0.007,0.978,-19.104,43.030,-18.799
0.140,-0.018,0.968,-14.282,35.278,-15.320
0.155,0.009,0.895,-11.353,28.687,-13.794
0.160,0.024,0.879,-9.888,16.785,-12.024
0.159,0.079,0.868,-9.033,15.015,-11.353
0.150,0.101,0.843,-2.808,15.198,-12.573
0.143,0.076,0.781,-0.854,14.160,-13.000
0.141,0.065,0.802,-3.906,10.742,-8.179
0.138,0.062,0.854,-3.418,14.160,-4.944
0.148,0.075,0.855,4.211,20.996,-1.221
0.170,0.135,0.824,6.470,20.142,-2.319
0.171,0.128,0.827,4.150,10.559,-7.629
0.166,0.083,0.830,1.038,6.348,-8.240
0.171,0.089,0.850,-2.319,3.723,-7.324
0.178,0.109,0.913,-4.150,1.648,-5.981
0.179,0.115,0.920,-1.465,1.587,-5.676
0.179,0.105,0.918,4.639,1.282,-4.944
0.179,0.107,0.915,3.845,0.671,-3.418
0.183,0.127,0.930,-0.793,-1.099,-1.282
0.185,0.138,0.958,-0.610,-0.854,-1.404
0.189,0.153,0.947,2.808,-0.305,-1.160
0.202,0.212,0.975,2.808,-1.587,-2.258
0.203,0.207,0.995,3.296,0.305,-7.202
0.198,0.160,0.986,5.127,2.197,-7.690
0.198,0.153,0.965,5.493,0.732,-6.531
0.203,0.181,0.997,3.967,-0.488,-6.226
0.205,0.194,1.016,5.371,4.456,-7.324
0.205,0.155,0.982,6.531,7.324,-8.240
0.207,0.147,0.963,6.348,7.324,-7.996
0.214,0.183,0.995,4.517,2.075,-6.348
0.210,0.163,1.005,6.104,2.197,-7.568
0.206,0.116,0.978,9.094,8.789,-9.399
0.227,0.102,0.916,5.981,8.240,-7.141
0.234,0.118,0.936,0.305,1.770,-3.967
0.995,-1.246,0.409,81.543,43.579,5.798
0.960,-1.261,0.417,81.299,46.021,37.048
0.887,-1.221,0.437,80.872,47.607,50.354
0.828,-1.194,0.459,98.450,41.199,71.960
0.641,-1.149,0.565,113.770,35.522,84.045
0.535,-1.148,0.649,143.372,28.992,117.981
0.291,-1.184,0.663,155.457,27.405,141.357
0.160,-1.165,0.598,160.583,19.653,205.322
-0.115,-0.883,0.431,152.893,17.334,238.586
-0.261,-0.637,0.310,146.240,10.742,291.138
-0.410,-0.103,0.229,151.978,2.136,308.594
-0.426,0.155,0.347,172.485,-30.029,318.054
-0.391,0.594,0.730,183.228,-49.072,307.800
-0.356,0.756,0.799,175.537,-46.265,286.621
-0.280,1.053,0.658,151.428,-35.583,281.311
-0.243,1.200,0.633,107.178,-31.189,256.287
-0.166,1.314,0.674,105.041,-32.471,233.948
-0.142,1.292,0.643,111.877,-32.532,211.121
-0.057,1.318,0.568,112.244,-31.006,178.528
-0.007,1.341,0.560,102.112,-30.273,166.931
0.039,1.311,0.515,105.286,-28.748,137.024
0.072,1.067,0.309,118.896,-32.043,118.835
0.071,0.895,0.236,135.742,-52.368,91.370
0.088,0.800,0.285,131.226,-64.270,86.975
0.098,0.936,0.349,103.027,-73.608,82.947
0.116,1.112,0.410,93.628,-73.669,73.364
0.117,1.060,0.410,95.154,-78.613,45.288
0.152,0.923,0.469,98.877,-85.632,35.034
0.177,0.914,0.530,95.520,-100.037,25.696
0.214,1.069,0.710,89.355,-104.492,22.217
0.207,1.086,0.819,87.769,-107.788,13.672
0.174,0.989,0.876,98.877,-108.459,-12.451
0.123,0.726,0.863,101.746,-107.849,-19.531
0.145,0.681,0.841,94.482,-110.229,-17.395
0.223,0.779,0.921,89.416,-114.441,-14.832
0.231,0.834,1.040,84.961,-116.882,-23.315
0.199,0.751,1.055,84.900,-114.258,-33.081
0.146,0.564,1.091,82.092,-111.206,-45.227
0.136,0.537,1.095,79.529,-110.901,-46.692
0.156,0.651,1.131,69.763,-113.586,-48.523
0.173,0.749,1.160,61.951,-114.197,-51.453
0.183,0.786,1.160,46.631,-104.431,-68.970
0.156,0.642,1.087,41.748,-99.365,-78.735
0.134,0.558,1.054,37.476,-99.792,-89.539
0.102,0.463,1.064,34.485,-104.614,-93.628
0.097,0.420,1.108,31.494,-110.107,-101.318
0.099,0.374,1.144,33.691,-106.934,-101.746
0.119,0.417,1.151,28.259,-98.694,-100.281
0.140,0.530,1.175,20.691,-94.299,-104.004
0.129,0.501,1.226,10.010,-90.332,-119.019
0.094,0.306,1.330,9.033,-88.562,-123.535
0.093,0.238,1.355,8.362,-81.909,-120.361
0.143,0.249,1.365,8.728,-78.369,-117.432
0.163,0.279,1.369,6.653,-70.740,-119.324
0.172,0.244,1.386,3.174,-66.406,-123.230
0.166,0.197,1.393,-5.859,-55.603,-129.028
0.156,0.109,1.434,-10.620,-49.561,-129.883
0.158,0.070,1.423,-18.738,-35.095,-125.122
0.181,0.078,1.359,-21.973,-30.212,-119.995
0.196,0.098,1.323,-23.621,-26.855,-115.540
0.213,0.120,1.350,-25.330,-21.912,-111.450
0.207,0.079,1.381,-23.682,-17.334,-111.633
0.206,-0.061,1.320,-15.076,-2.808,-108.521
0.209,-0.115,1.269,-13.977,3.540,-103.088
0.210,-0.182,1.206,-18.005,10.803,-88.562
0.203,-0.205,1.164,-17.639,13.367,-81.238
0.204,-0.170,1.066,-13.000,14.648,-66.711
0.202,-0.144,1.058,-13.428,12.756,-61.340
0.187,-0.221,1.011,-12.817,14.160,-55.786
0.185,-0.237,0.971,-12.512,16.541,-50.293
0.190,-0.104,0.973,-14.587,17.700,-34.729
0.196,-0.034,0.980,-10.193,19.775,-28.809
0.211,0.046,0.978,-8.362,20.874,-28.625
0.210,0.082,0.947,-9.277,24.048,-30.090
0.201,0.102,0.847,-9.888,24.658,-31.189
0.197,0.088,0.825,-8.362,20.874,-31.067
0.197,0.073,0.833,-4.944,18.311,-29.663
0.198,0.081,0.842,4.822,14.587,-26.062
0.192,0.080,0.870,7.019,13.550,-24.963
0.193,0.083,0.900,9.338,12.756,-22.217
0.183,0.082,0.872,10.559,13.794,-20.691
0.187,0.090,0.866,6.470,9.094,-15.747
0.204,0.151,0.936,2.930,6.592,-14.160
0.203,0.157,0.937,2.258,9.583,-15.503
0.207,0.166,0.914,3.174,9.766,-15.076
0.215,0.187,0.921,3.967,7.812,-13.672
0.222,0.202,0.937,5.310,3.540,-12.634
0.213,0.196,0.937,5.554,4.761,-13.428
0.210,0.171,0.923,6.287,8.423,-13.672
0.222,0.149,0.934,6.470,7.935,-11.902
0.225,0.153,0.939,6.042,5.859,-8.606
0.225,0.173,0.937,4.089,5.554,-7.446
0.229,0.203,0.935,-2.991,5.371,-6.958
0.221,0.197,0.909,-4.272,5.920,-8.301
0.214,0.170,0.875,-1.221,5.188,-8.057
0.217,0.166,0.852,-0.549,2.563,-6.531
0.224,0.173,0.890,-1.709,-2.625,-4.333
0.226,0.196,0.939,-0.732,-1.343,-3.662
0.226,0.209,0.926,3.296,4.211,-3.479
0.234,0.233,0.908,4.578,4.211,-4.211
0.239,0.232,0.916,4.761,2.441,-5.615
0.242,0.216,0.928,3.235,-1.282,-7.751
0.244,0.184,0.942,2.563,-2.075,-7.141
0.249,0.189,0.948,1.038,-2.869,-4.822
0.253,0.190,0.963,0.916,-2.319,-4.578
0.251,0.176,0.960,1.587,0.488,-4.272
0.257,0.176,0.962,0.122,0.977,-3.723
0.259,0.182,0.971,-2.502,1.099,-2.869
0.255,0.182,0.954,-1.953,1.343,-2.502
0.258,0.179,0.949,-1.953,-1.099,-1.343
0.264,0.199,0.958,-2.991,-2.502,-0.916
0.261,0.201,0.956,-2.869,-2.808,-1.160
0.253,0.178,0.949,-0.122,-1.038,-1.770
0.253,0.185,0.950,-1.099,-0.183,-1.465
0.254,0.195,0.956,-4.211,0.427,-2.075
0.258,0.181,0.951,-2.808,0.122,-2.441
0.258,0.177,0.954,0.366,-2.380,-1.221
0.255,0.192,0.981,1.160,-2.930,-0.427
0.254,0.210,0.979,-1.282,-0.305,-1.343
0.526,0.866,1.638,-43.030,79.834,-71.350
0.527,1.036,1.834,-37.476,113.770,-109.375
0.448,0.701,1.524,-25.452,143.982,-136.353
0.440,0.410,1.234,-24.109,169.373,-148.437
0.512,0.275,1.093,-35.339,166.870,-138.062
0.528,0.264,1.066,-64.453,181.519,-127.686
0.544,0.279,0.795,-70.313,188.477,-127.808
0.585,0.302,0.711,-49.927,165.161,-132.385
0.632,0.372,0.796,-53.223,159.607,-122.742
0.633,0.414,0.722,-48.096,173.218,-123.657
0.652,0.180,0.524,-40.100,171.082,-132.385
0.673,0.150,0.482,-69.031,160.095,-119.324
0.730,0.328,0.498,-98.206,156.311,-112.183
0.729,0.424,0.520,-118.347,151.794,-111.755
0.696,0.468,0.493,-115.906,146.545,-128.906
0.620,0.292,0.315,-101.257,142.029,-142.944
0.611,0.178,0.279,-71.167,111.877,-155.457
0.628,0.126,0.359,-66.284,99.487,-154.663
0.644,0.115,0.341,-72.205,103.699,-158.020
0.674,-0.074,0.047,-77.026,109.070,-160.461
0.689,-0.248,-0.178,-70.190,94.971,-151.550
0.698,-0.874,-0.558,-57.495,68.665,-147.400
0.662,-1.480,-0.621,-30.884,-8.606,-122.070
0.577,-2.549,-0.396,-26.489,-43.701,-91.614
0.553,-2.969,-0.010,-20.935,-79.651,-15.259
0.447,-3.595,0.852,7.202,-69.397,30.701
0.289,-3.838,0.869,73.059,-14.038,156.372
-0.169,-3.313,0.443,87.036,-4.578,240.662
-0.450,-2.609,0.278,119.751,-41.870,372.009
-0.987,-1.244,0.214,138.000,-72.693,402.039
-1.201,-0.699,0.225,132.629,-116.699,426.636
-1.464,0.242,0.479,96.313,-126.953,434.753
-1.464,0.794,0.702,61.951,-133.057,442.993
-1.224,1.585,0.722,81.909,-127.136,412.598
-1.088,1.773,0.515,121.094,-117.615,369.873
-0.925,1.857,0.429,175.903,-128.784,272.156
-0.608,1.628,0.577,174.011,-129.700,222.290
-0.484,1.454,0.629,133.301,-103.271,145.325
-0.309,1.115,0.654,121.643,-93.079,117.065
-0.249,0.858,0.630,125.916,-92.285,73.486
-0.174,0.749,0.577,118.286,-100.220,68.298
-0.105,0.976,0.645,86.609,-125.305,66.833
0.025,1.167,0.932,78.491,-130.005,50.598
0.051,1.015,1.018,93.079,-119.629,7.812
0.065,0.656,1.150,106.079,-113.892,-5.127
0.085,0.594,1.190,113.464,-105.774,-11.719
0.134,0.687,1.178,107.056,-104.980,-13.000
0.168,0.730,1.170,96.802,-105.835,-17.822
0.184,0.691,1.215,79.041,-109.192,-37.109
0.159,0.505,1.364,78.491,-108.093,-45.593
0.140,0.398,1.317,87.952,-101.868,-54.993
0.137,0.314,1.195,86.548,-104.614,-53.833
0.141,0.342,1.222,68.604,-106.689,-48.950
0.133,0.328,1.209,57.556,-104.126,-46.814
0.132,0.341,1.238,37.292,-102.539,-43.396
0.119,0.481,1.377,29.907,-100.891,-43.762
0.115,0.550,1.453,30.151,-89.355,-49.316
0.121,0.474,1.381,33.997,-78.796,-56.641
0.143,0.401,1.310,39.856,-72.266,-66.772
0.159,0.344,1.271,46.082,-76.294,-69.092
0.148,0.337,1.294,47.058,-84.045,-75.012
0.117,0.311,1.424,34.851,-82.520,-78.369
0.099,0.303,1.458,7.080,-64.270,-86.914
0.068,0.260,1.300,0.061,-54.565,-92.529
0.054,0.236,1.261,-11.230,-51.208,-96.741
0.018,0.147,1.268,-12.512,-48.950,-93.018
0.010,0.117,1.227,-10.376,-44.189,-87.646
-0.002,0.154,1.209,-7.629,-39.856,-81.177
-0.021,0.182,1.257,-8.179,-39.490,-82.703
-0.038,0.138,1.250,-3.845,-32.715,-89.844
-0.022,0.088,1.213,-1.831,-30.518,-91.492
-0.002,0.095,1.198,-1.160,-33.081,-91.431
-0.002,0.127,1.226,-2.380,-33.081,-90.759
-0.006,0.127,1.276,-6.042,-24.841,-91.370
-0.012,0.046,1.283,-3.235,-17.395,-91.431
-0.014,0.016,1.264,5.005,-4.272,-88.745
0.002,-0.041,1.183,7.141,1.160,-86.670
0.020,-0.062,1.161,-2.319,6.042,-80.811
0.042,-0.078,1.178,-8.545,6.470,-77.209
0.042,-0.071,1.198,-9.888,5.493,-69.275
0.051,-0.013,1.176,-9.094,7.446,-65.796
0.057,-0.016,1.168,-16.541,15.381,-61.829
0.073,-0.075,1.101,-16.663,19.592,-58.472
0.082,-0.080,1.044,-13.672,21.301,-46.631
0.100,-0.026,1.031,-16.052,19.226,-40.771
0.100,0.011,1.072,-23.254,21.301,-35.522
0.083,0.037,1.069,-23.132,25.757,-34.790
0.084,0.042,1.042,-18.677,27.893,-32.288
0.080,0.039,0.972,-17.151,26.367,-30.701
0.076,0.060,0.938,-17.639,23.682,-27.161
0.073,0.045,0.922,-18.982,22.705,-27.527
0.069,0.004,0.896,-18.677,22.400,-26.245
0.068,0.030,0.845,-17.029,20.020,-23.071
0.070,0.072,0.854,-13.428,14.465,-19.226
0.071,0.071,0.902,-12.207,14.587,-19.226
0.069,0.061,0.907,-9.094,19.348,-17.517
0.074,0.060,0.838,-8.423,21.240,-16.296
0.078,0.037,0.798,-8.667,20.752,-15.015
0.092,0.010,0.796,-10.010,12.207,-9.277
0.094,0.034,0.854,-10.986,6.287,-5.188
0.094,0.092,0.908,-8.606,3.479,0.610
0.096,0.167,0.909,-5.127,6.470,-0.244
0.098,0.144,0.878,-1.160,8.118,-3.662
0.097,0.149,0.854,-1.587,4.028,-2.808
0.097,0.182,0.880,0.183,-8.179,-2.075
0.097,0.153,0.971,2.136,-11.475,-3.540
0.093,0.130,0.987,5.432,-7.935,-2.930
0.094,0.151,0.946,5.554,-4.822,-1.404
0.092,0.176,0.945,4.944,-3.357,-0.488
0.094,0.188,0.966,5.676,-2.380,-1.343
0.096,0.170,0.960,7.141,3.418,-2.563
0.097,0.137,0.922,8.179,5.798,-1.892
0.099,0.139,0.897,9.949,6.165,-0.244
0.105,0.175,0.912,9.888,-1.587,3.113
0.104,0.191,0.939,8.118,-5.615,3.662
0.099,0.190,0.954,7.263,-5.249,2.930
0.095,0.208,0.969,7.568,-4.578,2.747
0.098,0.236,0.993,6.165,-5.066,-0.793
0.092,0.194,0.974,5.798,-2.075,-3.235
0.579,-2.124,-0.010,116.516,-40.649,58.289
0.501,-2.284,0.040,136.719,-80.078,139.587
0.329,-1.840,0.307,131.531,-97.290,205.017
0.280,-1.290,0.528,102.600,-103.821,312.561
0.266,-0.128,0.753,96.069,-85.632,335.937
0.312,0.453,0.822,95.642,-65.308,315.247
0.476,1.074,1.109,102.905,-63.599,274.231
0.535,0.965,1.141,121.948,-31.311,196.350
0.556,0.673,0.838,121.704,-12.939,183.411
0.556,0.706,0.762,104.858,-15.320,181.946
0.582,0.848,0.849,100.220,-21.057,176.331
0.581,0.799,0.841,102.478,-11.841,149.170
0.533,0.491,0.706,108.887,-6.531,135.010
0.499,0.322,0.614,117.493,-7.996,124.695
0.434,0.327,0.511,104.187,-12.817,132.935
0.426,0.599,0.528,76.538,-17.517,144.958
0.443,0.865,0.582,25.269,-17.822,145.874
0.480,0.907,0.571,23.804,-10.376,129.944
0.485,0.689,0.449,48.889,5.432,93.994
0.474,0.327,0.318,57.556,0.366,90.942
0.464,0.343,0.331,49.438,-13.977,106.140
0.440,0.515,0.320,41.809,-17.944,111.694
0.442,0.591,0.344,38.147,-29.236,110.291
0.448,0.674,0.391,43.030,-30.212,103.943
0.448,0.654,0.392,57.617,-30.945,86.792
0.425,0.465,0.387,63.904,-33.386,80.322
0.405,0.368,0.390,68.298,-36.682,78.979
0.373,0.427,0.382,69.824,-47.791,92.529
0.370,0.590,0.428,62.073,-55.176,101.929
0.373,0.751,0.495,45.959,-61.401,100.098
0.380,0.806,0.575,47.607,-59.082,86.487
0.364,0.679,0.552,68.054,-55.542,55.481
0.304,0.351,0.487,76.477,-58.899,50.049
0.278,0.321,0.489,66.833,-72.815,67.688
0.264,0.611,0.623,51.758,-79.102,79.773
0.277,0.792,0.718,36.621,-81.177,77.820
0.310,0.877,0.734,43.091,-75.562,62.988
0.308,0.725,0.686,54.993,-70.801,44.250
0.263,0.445,0.644,67.322,-73.486,25.391
0.250,0.521,0.683,59.753,-79.773,31.311
0.252,0.711,0.759,39.490,-89.478,41.748
0.268,0.928,0.858,41.382,-87.524,34.058
0.270,0.861,0.842,60.120,-77.759,7.019
0.262,0.608,0.824,67.139,-76.538,-2.625
0.250,0.499,0.836,68.420,-79.163,-7.996
0.229,0.448,0.863,62.622,-81.482,-4.456
0.229,0.524,0.919,45.105,-86.609,4.028
0.209,0.657,1.022,39.124,-85.571,2.625
0.190,0.650,1.022,37.109,-82.275,-2.380
0.143,0.516,0.952,42.542,-75.073,-13.489
0.130,0.474,0.931,45.349,-75.500,-15.320
0.138,0.475,0.898,46.265,-80.688,-15.686
0.148,0.442,0.918,44.739,-84.167,-18.372
0.151,0.380,0.953,46.814,-89.111,-24.719
0.151,0.248,1.001,48.340,-89.722,-24.475
0.154,0.272,1.045,38.452,-93.140,-14.404
0.166,0.502,1.160,31.555,-93.933,-10.681
0.158,0.572,1.175,27.649,-84.167,-19.409
0.130,0.517,1.121,31.372,-77.515,-27.466
0.116,0.459,1.097,41.687,-71.716,-37.048
0.092,0.391,1.057,44.128,-70.618,-38.696
0.084,0.373,1.041,38.879,-72.083,-39.307
0.089,0.402,1.077,32.349,-74.341,-38.818
0.086,0.431,1.108,26.733,-74.707,-44.250
0.069,0.375,1.166,27.954,-73.425,-49.133
0.058,0.339,1.157,31.006,-64.575,-53.162
0.039,0.298,1.109,29.236,-62.073,-52.979
0.030,0.299,1.135,24.719,-62.988,-52.002
0.014,0.342,1.188,15.503,-62.012,-49.194
0.010,0.351,1.175,12.268,-56.152,-49.377
0.009,0.371,1.160,7.324,-46.936,-51.697
-0.005,0.379,1.167,7.568,-43.030,-54.810
-0.016,0.336,1.156,10.559,-33.386,-60.608
-0.030,0.296,1.113,11.047,-30.457,-61.523
-0.036,0.294,1.094,14.404,-30.579,-63.904
-0.047,0.282,1.087,14.648,-32.166,-65.247
-0.053,0.288,1.087,7.812,-32.532,-65.796
-0.059,0.368,1.092,4.700,-32.227,-66.528
-0.063,0.381,1.114,7.751,-29.236,-73.914
-0.072,0.304,1.094,13.000,-25.208,-78.125
-0.070,0.274,1.084,18.982,-22.278,-82.275
-0.066,0.259,1.116,18.799,-21.484,-83.557
-0.066,0.249,1.115,17.517,-19.043,-84.717
-0.067,0.249,1.087,11.597,-13.245,-84.717
-0.061,0.293,1.074,5.737,-13.062,-84.717
-0.060,0.302,1.079,0.671,-12.024,-87.769
-0.059,0.239,1.061,1.831,-10.742,-89.172
-0.059,0.220,1.079,3.296,-12.573,-87.830
-0.056,0.225,1.109,-0.061,-13.550,-86.670
-0.047,0.225,1.148,-23.682,-12.939,-84.900
-0.029,0.160,1.208,-35.034,-7.263,-83.801
-0.014,0.112,1.181,-34.607,7.080,-79.590
0.021,0.029,1.065,-25.757,9.460,-76.721
0.028,0.010,1.024,-18.677,6.470,-68.542
0.030,0.016,0.982,-19.653,5.249,-64.209
0.033,0.016,0.963,-22.888,3.967,-56.763
0.051,0.024,0.987,-23.987,1.770,-52.734
0.056,0.059,1.021,-21.179,0.183,-45.532
0.052,0.127,1.040,-15.869,3.479,-44.434
0.052,0.117,1.023,-6.470,12.024,-44.434
0.055,0.043,0.956,-5.676,14.893,-42.603
0.062,0.032,0.935,-7.141,15.686,-38.940
0.077,0.066,0.931,-7.996,12.146,-31.311
0.083,0.086,0.925,-5.310,10.193,-28.748
0.090,0.140,0.921,-1.892,7.874,-24.963
0.089,0.154,0.918,-2.075,8.423,-24.048
0.089,0.150,0.916,-2.808,11.169,-22.278
0.094,0.163,0.891,-2.380,11.475,-20.325
0.096,0.178,0.870,-0.122,8.240,-17.029
0.094,0.198,0.893,0.916,5.615,-15.625
0.092,0.202,0.911,2.991,4.761,-13.733
0.089,0.228,0.908,1.404,6.165,-13.062
0.088,0.239,0.924,-3.052,7.629,-12.756
0.086,0.246,0.958,-2.380,7.507,-11.963
0.086,0.264,0.954,-0.854,5.066,-9.216
0.085,0.295,0.959,-1.343,3.357,-8.423
0.083,0.296,0.981,-1.282,2.686,-8.118
0.081,0.301,1.002,3.601,4.944,-7.629
0.086,0.315,0.976,6.165,6.653,-8.118
0.688,-1.668,0.324,117.920,-4.028,47.302
0.602,-1.862,0.369,124.329,-2.075,97.473
0.388,-1.991,0.403,131.531,-5.249,136.536
0.226,-1.850,0.303,175.781,-26.917,233.704
-0.141,-1.347,0.062,186.707,-50.293,290.771
-0.241,-0.878,0.218,137.024,-112.610,404.846
-0.233,0.929,0.876,104.309,-122.437,445.740
-0.096,2.036,1.083,72.937,-89.111,418.823
0.292,2.892,1.190,75.684,-59.326,333.923
0.413,2.416,1.059,114.746,9.216,147.583
0.492,1.196,0.516,128.540,24.109,104.004
0.518,0.927,0.438,103.699,-2.197,96.008
0.506,0.788,0.472,86.548,-10.681,100.586
0.499,0.786,0.515,63.293,-10.254,99.426
0.498,0.816,0.619,55.115,-2.930,93.323
0.480,0.721,0.512,46.753,25.146,78.857
0.437,0.562,0.227,48.035,25.940,78.003
0.437,0.581,0.150,50.781,16.785,80.444
0.496,0.669,0.216,50.354,-10.315,82.336
0.524,0.705,0.272,48.218,-18.066,78.918
0.545,0.720,0.307,42.480,-16.602,65.369
0.566,0.634,0.347,43.091,-14.526,58.289
0.571,0.576,0.348,46.753,-16.479,51.147
0.568,0.530,0.379,46.570,-19.958,50.659
0.553,0.521,0.403,44.373,-25.574,51.636
0.523,0.550,0.408,41.077,-27.039,53.040
0.506,0.593,0.393,36.621,-30.029,54.810
0.477,0.710,0.363,37.048,-32.837,54.260
0.472,0.773,0.364,41.992,-38.452,45.898
0.470,0.704,0.347,48.401,-39.001,37.903
0.464,0.597,0.316,54.321,-39.551,31.067
0.438,0.455,0.321,55.298,-47.668,29.846
0.427,0.485,0.354,50.415,-53.528,34.912
0.427,0.568,0.411,44.861,-63.599,42.847
0.435,0.705,0.493,47.424,-64.636,40.833
0.437,0.685,0.475,56.396,-63.843,28.442
0.437,0.533,0.533,57.495,-67.383,24.048
0.430,0.496,0.561,52.734,-70.679,26.978
0.416,0.575,0.608,48.157,-73.303,31.128
0.410,0.638,0.672,44.006,-75.745,32.288
0.405,0.660,0.658,47.791,-71.350,28.687
0.400,0.627,0.589,52.246,-67.993,24.170
0.394,0.592,0.567,56.396,-76.111,17.090
0.385,0.524,0.683,58.350,-82.397,15.076
0.374,0.495,0.746,58.411,-85.693,15.991
0.342,0.506,0.783,53.528,-83.801,18.494
0.330,0.529,0.812,43.884,-81.543,20.569
0.325,0.581,0.814,43.396,-79.956,19.409
0.331,0.605,0.797,42.908,-81.055,13.611
0.326,0.565,0.857,42.114,-83.801,10.437
0.318,0.536,0.899,39.917,-84.229,7.996
0.300,0.515,0.962,39.856,-82.947,7.568
0.286,0.510,0.974,42.969,-80.750,5.737
0.264,0.546,0.969,43.030,-79.895,5.432
0.253,0.569,0.965,42.358,-79.468,1.404
0.227,0.516,0.931,44.373,-79.102,-2.625
0.217,0.455,0.908,46.753,-78.979,-6.104
0.206,0.398,0.896,43.701,-79.895,-7.446
0.191,0.331,0.944,39.612,-80.200,-5.798
0.189,0.340,0.952,35.400,-77.454,-0.244
0.194,0.439,0.894,33.997,-75.439,2.197
0.182,0.546,0.839,32.349,-72.571,0.610
0.170,0.543,0.855,33.081,-72.205,-4.456
0.155,0.521,0.939,38.452,-78.247,-14.160
0.142,0.514,1.119,46.204,-81.543,-17.212
0.138,0.476,1.149,53.528,-81.726,-29.785
0.128,0.404,1.145,50.049,-78.918,-38.635
0.091,0.246,1.068,46.204,-72.205,-43.762
0.072,0.217,1.073,37.231,-75.256,-37.048
0.041,0.250,1.206,32.349,-75.745,-33.081
0.032,0.291,1.248,25.574,-63.293,-28.809
0.001,0.312,1.119,22.705,-53.223,-29.419
-0.018,0.312,1.026,12.024,-47.607,-30.334
-0.042,0.352,1.067,7.935,-53.833,-30.701
-0.059,0.369,1.105,14.099,-56.335,-34.851
-0.086,0.362,1.102,18.372,-53.345,-37.781
-0.096,0.358,1.109,19.043,-47.363,-43.579
-0.105,0.354,1.131,19.653,-44.373,-46.753
-0.110,0.348,1.104,25.146,-38.940,-53.284
-0.118,0.320,1.003,26.062,-39.246,-55.725
-0.122,0.304,1.007,19.958,-44.556,-58.044
-0.129,0.253,1.039,15.869,-43.518,-58.289
-0.130,0.241,1.050,11.475,-38.574,-57.861
-0.123,0.250,1.053,12.878,-36.804,-58.533
-0.121,0.263,1.041,18.372,-34.973,-62.012
-0.131,0.275,1.004,21.423,-34.851,-64.514
-0.134,0.260,0.998,18.005,-36.743,-68.542
-0.135,0.223,1.042,11.353,-37.109,-68.970
-0.132,0.219,1.069,4.944,-32.959,-69.336
-0.133,0.213,1.074,8.179,-29.907,-70.374
-0.134,0.229,1.045,14.832,-25.635,-72.693
-0.140,0.267,0.966,15.015,-25.696,-74.219
-0.132,0.280,0.977,12.634,-31.982,-77.881
-0.110,0.257,1.099,16.296,-32.837,-81.116
-0.098,0.214,1.128,31.921,-27.405,-85.022
-0.070,0.189,1.143,34.424,-25.330,-84.656
-0.062,0.209,1.183,22.339,-22.217,-84.473
-0.056,0.215,1.204,16.113,-17.517,-85.449
-0.046,0.181,1.185,3.906,-9.949,-85.083
-0.019,0.157,1.237,-1.709,-9.460,-82.581
-0.013,0.165,1.257,-0.977,-1.038,-79.102
-0.016,0.113,1.236,3.113,4.944,-78.369
-0.019,0.092,1.187,3.296,13.855,-72.998
-0.019,0.093,1.119,-2.563,15.137,-69.397
-0.020,0.107,1.113,-10.742,17.395,-63.477
-0.022,0.100,1.076,-8.545,20.264,-62.073
-0.023,0.062,1.046,1.099,25.269,-58.777
-0.023,-0.009,0.962,4.150,27.344,-55.176
-0.022,-0.032,0.918,2.747,29.358,-45.471
-0.012,-0.049,0.859,-3.540,28.259,-39.856
-0.004,-0.031,0.861,-19.165,23.743,-27.344
0.018,0.058,0.882,-21.240,21.851,-21.912
0.025,0.109,0.886,-14.038,16.663,-16.846
0.026,0.167,0.884,-10.559,14.282,-17.090
0.028,0.201,0.889,-13.367,11.292,-18.860
0.031,0.220,0.960,-14.832,10.254,-20.874
0.028,0.176,0.989,-6.653,10.132,-23.865
0.026,0.118,1.002,-3.479,10.193,-22.583
0.016,0.129,0.976,-3.052,13.306,-18.250
0.700,-1.952,-0.201,-5.981,-17.517,-110.962
0.674,-2.328,-0.162,-14.099,-33.142,-70.374
0.608,-2.841,-0.054,-14.526,-33.936,-36.804
0.561,-2.891,-0.138,13.611,-26.794,54.199
0.414,-2.643,-0.388,27.771,-38.086,104.980
0.311,-2.436,-0.403,67.566,-101.562,202.332
0.023,-1.922,-0.311,96.741,-134.460,247.131
-0.161,-1.168,-0.080,149.109,-175.659,329.895
-0.220,-0.643,0.234,151.611,-189.514,361.145
-0.247,-0.071,0.725,124.573,-202.698,370.666
-0.075,1.054,1.618,114.441,-182.251,349.487
0.052,1.401,1.712,60.730,-89.539,269.409
0.255,1.671,1.382,22.766,-46.631,227.661
0.334,1.650,1.139,11.108,-7.812,161.072
0.413,1.474,0.860,36.133,-8.423,131.226
0.408,1.209,0.790,82.397,-15.015,69.214
0.457,0.652,0.769,83.618,-16.602,52.307
0.485,0.600,0.771,48.218,-10.803,60.486
0.501,0.729,0.637,29.114,-4.639,64.148
0.508,0.683,0.558,22.705,-1.404,48.218
0.553,0.389,0.453,31.799,-3.906,39.124
0.568,0.265,0.380,41.138,-6.958,35.828
0.570,0.241,0.314,37.659,-20.081,46.265
0.586,0.417,0.409,30.823,-31.189,51.208
0.599,0.436,0.473,40.833,-37.292,44.189
0.617,0.225,0.394,50.659,-36.499,40.649
0.623,0.190,0.403,44.373,-48.279,53.101
0.620,0.422,0.500,37.109,-54.810,61.829
0.604,0.560,0.521,33.630,-58.777,65.918
0.580,0.682,0.589,34.485,-63.843,57.556
0.577,0.622,0.622,38.696,-63.721,46.509
0.577,0.495,0.634,52.795,-60.059,28.381
0.560,0.317,0.641,57.251,-61.646,27.466
0.546,0.328,0.643,52.734,-68.787,36.865
0.532,0.475,0.673,43.518,-72.327,41.260
0.533,0.535,0.722,28.564,-71.228,37.415
0.531,0.468,0.751,30.579,-66.101,30.090
0.526,0.366,0.728,42.358,-63.660,22.461
0.502,0.336,0.724,42.542,-68.115,26.306
0.487,0.385,0.761,29.358,-76.843,34.363
0.477,0.475,0.850,21.973,-76.355,34.607
0.479,0.465,0.837,18.921,-71.594,31.738
0.472,0.398,0.792,23.254,-64.697,24.231
0.467,0.410,0.816,24.353,-66.162,23.315
0.459,0.439,0.860,19.958,-69.702,23.437
0.444,0.468,0.902,18.677,-69.092,22.278
0.439,0.465,0.908,21.240,-66.711,17.456
0.427,0.438,0.924,24.231,-65.247,13.855
0.424,0.406,0.935,30.579,-61.157,5.981
0.409,0.295,0.901,33.569,-59.509,3.845
0.394,0.250,0.885,27.832,-63.049,7.019
0.366,0.257,0.961,19.897,-66.406,11.292
0.356,0.297,0.988,8.850,-64.148,17.578
0.333,0.356,0.962,7.202,-60.303,18.005
0.323,0.366,0.930,9.583,-57.678,16.968
0.311,0.378,0.900,15.442,-58.533,13.367
0.284,0.404,0.912,14.587,-60.913,11.108
0.271,0.408,0.933,12.268,-63.232,6.897
0.262,0.459,1.000,14.221,-63.660,4.700
0.256,0.461,1.019,25.024,-58.899,-3.906
0.241,0.363,0.945,30.273,-56.152,-7.935
0.229,0.328,0.931,34.241,-60.364,-10.376
0.197,0.309,0.942,33.997,-63.171,-10.315
0.169,0.271,1.038,29.236,-66.284,-10.986
0.156,0.231,1.024,27.649,-57.434,-10.803
0.133,0.205,0.931,27.344,-56.519,-9.094
0.118,0.224,0.947,25.146,-64.758,-6.287
0.075,0.282,1.014,23.315,-64.331,-6.592
0.056,0.285,0.995,14.221,-58.044,-10.315
0.015,0.263,0.987,8.545,-59.082,-11.536
-0.004,0.281,1.043,5.554,-59.937,-11.780
-0.029,0.345,1.091,8.179,-54.321,-13.245
-0.035,0.364,1.029,8.423,-43.274,-21.240
-0.053,0.331,0.992,2.197,-43.518,-25.208
-0.060,0.325,1.031,-5.859,-43.457,-26.855
-0.065,0.344,1.007,-4.089,-41.260,-26.672
-0.067,0.358,0.974,0.061,-46.143,-29.968
-0.073,0.352,1.000,1.160,-50.781,-33.752
-0.071,0.335,1.037,8.118,-51.086,-43.396
-0.067,0.257,1.035,12.512,-49.072,-46.875
-0.066,0.249,1.031,8.911,-52.368,-47.668
-0.064,0.325,1.124,3.967,-53.589,-48.279
-0.061,0.327,1.114,4.211,-47.668,-56.213
-0.061,0.239,1.055,5.920,-48.401,-60.181
-0.062,0.195,1.079,8.667,-48.279,-62.134
-0.056,0.169,1.121,9.949,-44.312,-61.340
-0.049,0.170,1.109,12.512,-36.011,-60.425
-0.021,0.157,1.058,11.475,-34.546,-60.364
-0.012,0.147,1.075,2.869,-35.034,-60.242
0.000,0.120,1.139,1.038,-33.813,-59.692
0.007,0.111,1.141,1.770,-28.625,-57.129
0.020,0.102,1.130,2.258,-26.550,-55.359
0.021,0.113,1.117,0.549,-23.621,-51.270
0.017,0.166,1.127,-2.380,-22.766,-50.171
0.014,0.177,1.154,-3.662,-18.494,-50.903
0.008,0.174,1.153,-3.662,-14.221,-51.514
0.006,0.156,1.147,-4.272,-10.437,-52.002
0.005,0.071,1.075,-2.014,-3.784,-51.575
0.007,0.047,1.036,-1.038,-2.197,-49.255
0.004,0.071,1.046,-1.709,-5.127,-42.053
-0.001,0.115,1.049,-1.465,-5.493,-39.001
-0.007,0.154,1.038,-0.549,-2.930,-37.781
-0.017,0.156,1.017,-0.061,-1.709,-38.635
-0.020,0.147,0.999,-1.831,0.793,-38.269
-0.022,0.145,1.004,-2.380,1.221,-37.842
-0.025,0.130,1.008,1.587,2.930,-36.682
-0.028,0.156,0.983,1.221,3.479,-34.729
-0.028,0.194,0.996,-2.747,2.625,-33.081
-0.030,0.183,1.014,-0.427,3.845,-34.241
-0.031,0.147,0.998,5.859,6.042,-34.058
-0.024,0.125,0.995,5.371,5.127,-32.166
-0.025,0.127,1.005,4.822,4.395,-27.954
-0.027,0.147,1.000,6.042,4.578,-26.001
-0.024,0.168,0.997,4.761,3.662,-23.499
-0.022,0.189,0.986,2.197,4.333,-23.315
-0.021,0.187,0.963,-0.061,6.653,-22.949
-0.020,0.203,0.943,0.977,5.066,-22.400
-0.019,0.209,0.955,3.235,2.258,-22.156
-0.020,0.182,0.957,8.240,0.671,-22.766
0.981,-1.479,0.212,52.551,35.217,-41.809
0.973,-1.566,0.195,83.008,30.457,-18.555
0.912,-1.754,0.169,98.022,26.062,-2.930
0.875,-1.801,0.211,115.051,10.498,46.875
0.762,-1.795,0.357,115.479,8.423,75.867
0.654,-1.762,0.288,111.877,29.785,138.733
0.337,-1.579,-0.168,117.432,34.180,171.814
0.157,-1.447,-0.359,157.043,3.235,232.239
-0.123,-1.129,-0.461,185.913,-27.710,259.460
-0.190,-0.388,0.269,207.336,-121.094,322.205
-0.131,0.280,0.896,194.641,-170.898,355.774
0.185,1.815,1.904,111.694,-171.020,359.009
0.351,2.103,1.935,41.992,-20.325,240.112
0.448,1.396,0.869,41.199,46.692,181.641
0.451,1.070,0.490,61.890,37.109,132.812
0.460,0.894,0.449,65.430,13.611,123.474
0.470,0.850,0.388,57.617,10.498,102.722
0.505,0.717,0.236,51.758,7.507,92.468
0.512,0.652,0.219,50.293,-10.071,76.782
0.511,0.593,0.256,51.086,-17.090,73.792
0.526,0.623,0.281,48.157,-19.226,68.848
0.561,0.596,0.221,46.021,-16.296,61.523
0.577,0.564,0.198,36.987,-17.517,48.706
0.603,0.523,0.172,36.560,-18.250,44.800
0.612,0.492,0.145,44.128,-19.104,40.161
0.625,0.416,0.095,47.546,-22.705,39.185
0.634,0.388,0.098,50.659,-36.560,40.710
0.650,0.402,0.171,49.866,-43.518,43.213
0.656,0.410,0.205,49.805,-51.636,46.875
0.664,0.429,0.253,51.025,-55.359,48.584
0.667,0.486,0.304,51.208,-61.096,50.415
0.665,0.572,0.369,53.101,-61.096,47.974
0.669,0.615,0.349,55.237,-60.913,44.800
0.689,0.629,0.359,50.110,-61.584,35.706
0.696,0.582,0.394,50.476,-62.317,29.480
0.694,0.520,0.437,59.998,-64.514,19.836
0.662,0.384,0.556,61.523,-65.125,18.921
0.654,0.356,0.592,61.768,-65.613,25.146
0.662,0.423,0.567,59.509,-65.613,29.480
0.662,0.459,0.567,50.720,-67.200,33.386
0.651,0.528,0.638,47.974,-69.336,32.715
0.639,0.540,0.689,42.847,-67.322,27.893
0.615,0.476,0.687,39.917,-60.608,25.757
0.604,0.440,0.645,43.396,-57.495,25.024
0.576,0.460,0.677,44.006,-61.829,26.733
0.574,0.511,0.707,40.955,-63.293,28.931
0.588,0.563,0.653,31.311,-56.702,28.198
0.584,0.584,0.670,28.076,-57.312,25.269
0.575,0.588,0.728,33.936,-60.974,14.282
0.555,0.487,0.790,46.021,-57.678,4.822
0.557,0.439,0.742,47.363,-57.434,4.578
0.559,0.450,0.757,46.326,-62.683,5.737
0.545,0.419,0.802,46.692,-62.988,5.066
0.527,0.386,0.814,45.044,-61.096,5.371
0.493,0.380,0.843,42.786,-60.547,6.958
0.482,0.404,0.833,40.588,-59.937,8.484
0.480,0.422,0.823,33.020,-60.669,8.911
0.477,0.401,0.874,28.809,-61.279,8.362
0.468,0.400,0.900,26.367,-57.983,7.690
0.443,0.401,0.888,27.832,-54.932,6.897
0.435,0.403,0.864,27.771,-52.917,6.714
0.418,0.436,0.892,24.353,-53.467,7.019
0.401,0.454,0.901,19.470,-49.805,4.639
0.365,0.418,0.824,19.775,-47.119,2.319
0.362,0.388,0.825,22.827,-51.086,-0.916
0.367,0.369,0.900,26.001,-53.284,-2.136
0.359,0.360,0.908,28.198,-52.734,-3.174
0.330,0.362,0.934,22.583,-51.208,-2.014
0.316,0.346,0.947,19.348,-50.415,-1.160
0.308,0.308,0.931,19.470,-50.049,0.854
0.313,0.248,0.893,18.616,-52.856,2.441
0.311,0.230,0.910,11.475,-58.716,6.775
0.296,0.253,0.951,11.047,-60.730,9.705
0.281,0.284,0.951,12.451,-61.157,14.526
0.261,0.368,0.986,10.986,-61.584,15.869
0.258,0.404,1.000,10.376,-57.983,12.268
0.248,0.403,0.978,13.977,-54.565,7.690
0.238,0.372,0.967,17.029,-52.551,3.540
0.208,0.340,0.979,13.794,-52.124,0.427
0.194,0.346,0.968,12.207,-51.819,-0.061
0.182,0.358,0.956,12.207,-55.359,-2.563
0.154,0.347,0.979,13.000,-57.983,-4.639
0.141,0.318,0.968,16.113,-55.298,-8.057
0.126,0.289,0.958,15.930,-54.687,-8.484
0.120,0.292,0.985,13.733,-55.603,-7.874
0.106,0.350,0.990,13.062,-55.115,-7.568
0.098,0.377,0.999,9.766,-59.326,-14.282
0.084,0.391,1.041,8.911,-59.265,-17.883
0.077,0.383,1.029,14.282,-52.246,-24.963
0.057,0.355,1.011,18.311,-51.819,-28.442
0.049,0.365,1.094,18.555,-53.162,-33.752
0.049,0.371,1.106,17.578,-49.194,-36.865
0.047,0.351,1.075,24.414,-38.696,-44.128
0.035,0.286,0.994,26.367,-36.255,-45.593
0.034,0.254,0.982,17.151,-37.964,-44.617
0.045,0.240,1.038,11.108,-41.077,-43.213
0.049,0.261,1.071,7.202,-41.565,-43.091
0.048,0.283,1.104,8.728,-39.124,-44.312
0.046,0.289,1.111,9.338,-33.752,-46.021
0.036,0.276,1.079,7.751,-31.494,-47.424
0.029,0.250,1.069,4.456,-29.968,-48.645
0.014,0.223,1.034,-3.479,-27.771,-48.340
0.006,0.242,1.012,-8.484,-26.855,-47.058
-0.001,0.272,1.001,-16.785,-27.344,-46.265
-0.010,0.270,0.989,-17.761,-26.917,-47.363
-0.009,0.246,0.985,-15.015,-26.978,-48.828
-0.006,0.239,0.972,-12.390,-27.771,-49.011
-0.004,0.250,0.986,-6.958,-32.837,-50.720
-0.002,0.268,1.071,-5.127,-34.973,-51.819
-0.005,0.290,1.091,-6.714,-31.311,-53.894
-0.012,0.291,1.107,-7.935,-28.320,-55.603
-0.011,0.266,1.118,-7.751,-22.827,-57.800
-0.013,0.222,1.098,-5.981,-19.653,-57.922
0.000,0.202,1.091,-2.136,-17.639,-56.396
0.005,0.216,1.109,-1.465,-18.311,-55.176
0.010,0.251,1.143,-3.662,-16.418,-53.833
0.011,0.260,1.155,-6.042,-14.526,-53.589
0.011,0.264,1.151,-9.644,-9.277,-53.711
0.013,0.255,1.132,-10.132,-7.263,-53.711
0.714,-1.791,-0.172,79.651,16.418,-4.944
0.666,-1.880,-0.047,92.407,-15.015,59.875
0.465,-2.053,0.011,101.929,-19.348,97.290
0.318,-2.088,-0.104,144.226,-31.433,191.589
0.030,-1.809,-0.471,173.218,-50.720,249.145
-0.120,-0.877,0.140,194.031,-145.630,363.037
-0.015,-0.020,0.917,185.181,-213.379,402.100
0.289,1.531,1.747,191.711,-186.951,364.624
0.424,1.905,1.662,130.432,-68.726,229.675
0.561,1.587,0.795,93.018,-11.353,157.898
0.583,1.110,0.444,92.041,-2.441,62.988
0.608,0.526,0.530,101.440,-29.358,47.729
0.612,0.462,0.694,109.070,-53.772,45.776
0.589,0.457,0.849,103.638,-47.058,47.058
0.575,0.411,0.777,76.050,-16.357,44.495
0.546,0.241,0.496,62.012,-7.751,44.739
0.530,0.252,0.434,50.232,-8.362,50.415
0.545,0.408,0.447,44.556,-21.118,66.956
0.573,0.417,0.432,48.462,-24.536,69.275
0.600,0.387,0.419,45.715,-23.315,70.496
0.625,0.437,0.465,37.598,-22.156,73.181
0.634,0.496,0.457,27.649,-17.090,74.585
0.652,0.606,0.365,23.804,-14.832,73.364
0.658,0.626,0.328,20.264,-14.587,65.979
0.673,0.560,0.251,23.437,-16.846,60.425
0.687,0.504,0.236,36.194,-26.184,49.927
0.687,0.396,0.267,42.297,-31.250,46.875
0.676,0.380,0.287,40.039,-38.696,48.706
0.672,0.461,0.353,32.227,-40.955,51.697
0.672,0.501,0.380,27.649,-42.419,50.415
0.666,0.459,0.373,31.189,-42.786,46.631
0.656,0.403,0.368,37.964,-45.532,43.213
0.626,0.369,0.349,37.415,-47.913,45.227
0.617,0.405,0.356,33.691,-52.429,48.096
0.619,0.446,0.399,24.597,-60.730,49.866
0.634,0.474,0.520,25.146,-61.401,47.607
0.632,0.455,0.533,34.424,-60.120,41.199
0.611,0.447,0.543,34.241,-60.974,40.222
0.596,0.462,0.585,26.794,-61.951,40.405
0.579,0.524,0.606,24.170,-61.218,39.917
0.582,0.537,0.598,26.550,-62.622,33.447
0.579,0.457,0.622,31.067,-64.331,28.137
0.575,0.388,0.650,35.950,-66.345,24.231
0.558,0.329,0.698,32.959,-67.139,26.611
0.551,0.357,0.725,26.428,-66.284,31.494
0.548,0.420,0.743,21.301,-65.796,39.429
0.538,0.554,0.728,22.034,-65.613,39.673
0.524,0.568,0.742,24.597,-66.895,32.043
0.510,0.507,0.778,26.978,-66.772,27.344
0.506,0.473,0.779,29.846,-67.749,23.315
0.503,0.462,0.804,27.100,-67.871,24.231
0.499,0.490,0.806,21.362,-64.880,26.489
0.493,0.537,0.790,19.836,-63.965,25.513
0.494,0.524,0.811,20.386,-63.721,19.592
0.499,0.436,0.849,24.048,-63.477,16.663
0.501,0.388,0.863,27.954,-63.110,16.174
0.488,0.363,0.937,24.719,-63.049,19.165
0.467,0.406,0.957,19.775,-62.073,23.621
0.442,0.453,0.954,8.057,-58.594,29.846
0.418,0.506,0.969,2.686,-57.983,29.480
0.416,0.508,0.969,2.808,-53.650,22.461
0.387,0.458,0.904,8.179,-51.758,18.555
0.364,0.423,0.888,13.733,-54.199,16.174
0.325,0.445,0.919,11.353,-55.481,18.311
0.318,0.512,0.946,4.395,-52.979,20.142
0.311,0.561,0.908,4.395,-49.683,16.418
0.301,0.512,0.895,5.737,-49.133,6.409
0.277,0.436,0.950,10.010,-50.842,3.540
0.265,0.416,0.962,19.226,-50.293,1.343
0.244,0.382,0.959,19.226,-49.744,1.587
0.235,0.374,0.934,9.827,-48.462,3.418
0.227,0.396,0.897,4.272,-48.950,4.272
0.222,0.418,0.900,0.427,-49.438,4.456
0.213,0.439,0.900,1.892,-49.194,2.014
0.189,0.477,0.947,4.700,-50.354,-0.854
0.178,0.475,0.984,10.315,-49.622,-8.545
0.155,0.436,0.941,12.634,-46.814,-11.719
0.145,0.421,0.904,14.099,-45.471,-16.479
0.129,0.387,0.891,14.832,-46.997,-18.494
0.117,0.378,0.894,14.648,-49.927,-20.325
0.093,0.390,0.919,13.916,-51.208,-20.935
0.087,0.406,0.936,19.470,-51.086,-24.536
0.078,0.406,0.921,25.574,-49.744,-27.771
0.063,0.377,0.894,29.724,-48.462,-32.532
0.049,0.345,0.865,25.330,-50.049,-31.921
0.056,0.362,0.913,16.602,-56.274,-32.104
0.059,0.365,1.081,16.663,-55.908,-34.729
0.055,0.353,1.124,24.231,-47.729,-40.894
0.042,0.283,1.015,29.236,-42.419,-42.969
0.041,0.228,0.926,33.081,-42.725,-42.297
0.039,0.197,0.930,29.602,-49.377,-39.185
0.036,0.225,0.982,18.921,-56.885,-32.166
0.029,0.295,1.036,15.564,-53.955,-31.311
0.022,0.300,1.028,18.494,-44.739,-36.194
0.021,0.292,0.997,21.301,-43.823,-39.795
0.011,0.277,0.994,20.752,-47.791,-46.143
-0.009,0.275,1.015,20.142,-48.157,-46.631
-0.012,0.280,1.024,20.081,-47.729,-47.424
-0.010,0.310,1.133,17.029,-48.340,-47.607
-0.002,0.334,1.214,13.306,-39.063,-49.744
0.008,0.323,1.209,14.771,-28.442,-52.429
0.015,0.293,1.123,19.470,-15.930,-55.908
0.037,0.267,1.029,17.395,-18.982,-55.298
0.042,0.285,1.075,12.146,-28.870,-54.077
0.039,0.291,1.096,13.184,-28.259,-55.481
0.035,0.275,1.060,11.169,-26.123,-57.922
0.026,0.303,1.043,9.705,-27.893,-58.411
0.020,0.331,1.045,9.521,-29.236,-59.631
0.013,0.357,1.031,9.583,-28.259,-64.575
0.011,0.368,1.045,8.545,-28.198,-67.200
0.008,0.378,1.059,9.827,-26.672,-73.059
0.001,0.378,1.074,11.475,-25.085,-76.477
-0.002,0.359,1.085,16.174,-20.508,-83.923
-0.000,0.272,1.083,18.677,-16.846,-87.097
0.002,0.201,1.056,19.104,-10.315,-88.379
0.012,0.094,1.005,12.695,-9.827,-84.167
0.015,0.120,1.001,-7.507,-12.390,-69.580
0.018,0.244,1.008,-11.353,-13.000,-65.491
0.020,0.252,1.021,-5.798,-13.306,-66.650
0.714,0.849,1.022,-10.498,1.160,-17.578
0.715,0.831,1.017,-18.921,15.076,-37.537
0.745,0.835,1.074,-17.029,17.212,-45.227
0.770,0.865,1.098,-10.742,26.733,-63.049
0.782,0.987,1.066,-12.512,33.936,-74.402
0.779,1.034,1.095,-27.222,47.119,-106.934
0.780,0.942,1.180,-32.043,57.373,-124.695
0.769,0.880,1.209,-36.072,84.595,-152.466
0.727,0.750,1.147,-38.269,103.149,-162.415
0.699,0.615,0.970,-60.669,139.709,-174.316
0.675,0.326,0.588,-77.576,142.456,-173.340
0.684,0.267,0.534,-98.022,116.394,-164.307
0.668,0.304,0.633,-94.482,103.088,-163.147
0.635,0.270,0.587,-82.397,99.731,-168.030
0.626,0.059,0.413,-86.792,98.694,-166.138
0.632,-0.047,0.380,-93.689,85.999,-147.644
0.655,-0.265,0.345,-89.844,80.139,-133.850
0.653,-0.342,0.285,-81.055,71.106,-107.178
0.664,-0.363,0.214,-80.261,62.012,-96.558
0.683,-0.356,0.262,-65.735,40.344,-84.045
0.724,-0.505,0.258,-49.622,33.997,-79.407
0.745,-0.591,0.214,-34.668,23.010,-55.664
0.789,-0.597,0.175,-37.048,16.968,-39.734
0.808,-0.565,0.203,-47.974,9.888,-14.832
0.847,-0.543,0.245,-48.584,9.949,-7.690
0.851,-0.572,0.249,-37.903,12.390,3.540
0.832,-0.671,0.189,-29.602,13.550,11.414
0.809,-0.736,0.143,-5.737,5.066,32.288
0.748,-0.795,0.065,4.517,-3.906,46.448
0.728,-0.761,0.046,8.118,-25.024,77.942
0.695,-0.639,0.072,2.747,-34.119,93.262
0.678,-0.546,0.083,-3.418,-45.776,119.385
0.640,-0.320,0.080,1.282,-52.246,125.549
0.620,-0.237,0.121,10.254,-60.364,127.991
0.596,-0.137,0.244,34.424,-73.242,126.404
0.586,-0.127,0.259,51.514,-76.416,122.437
0.574,-0.114,0.259,80.383,-84.351,119.141
0.557,0.021,0.332,85.571,-90.637,120.422
0.553,0.096,0.378,77.637,-95.276,122.070
0.532,0.158,0.397,67.261,-93.201,122.375
0.535,0.173,0.462,53.162,-96.069,120.666
0.532,0.214,0.622,56.702,-95.398,118.774
0.514,0.211,0.576,67.688,-84.778,116.821
0.480,0.256,0.461,64.575,-86.365,118.896
0.470,0.342,0.492,51.208,-99.487,124.817
0.457,0.531,0.669,47.791,-103.027,122.253
0.458,0.570,0.756,49.744,-102.661,113.464
0.457,0.544,0.776,67.139,-93.201,86.243
0.435,0.394,0.743,72.693,-91.919,77.698
0.426,0.410,0.776,63.477,-96.863,81.726
0.433,0.580,0.844,55.115,-95.337,83.923
0.432,0.605,0.842,48.645,-88.013,75.195
0.411,0.569,0.904,50.720,-86.914,68.420
0.396,0.560,0.942,58.838,-83.435,54.871
0.375,0.584,0.941,57.800,-80.688,49.255
0.365,0.606,0.936,41.016,-76.050,40.039
0.341,0.582,0.932,33.142,-73.608,35.034
0.341,0.562,0.910,30.396,-71.899,30.396
0.336,0.508,0.900,37.109,-72.021,20.508
0.330,0.465,0.933,43.457,-73.181,14.648
0.321,0.414,0.983,49.988,-75.684,6.104
0.297,0.374,1.043,45.288,-74.951,6.042
0.287,0.385,1.047,29.358,-71.838,8.240
0.269,0.374,1.030,25.330,-69.336,7.568
0.260,0.356,1.024,27.222,-63.843,3.906
0.236,0.269,0.996,30.029,-62.134,1.526
0.221,0.218,0.957,31.433,-62.683,2.014
0.190,0.256,0.902,28.931,-66.162,5.127
0.178,0.323,0.911,24.231,-71.045,7.446
0.143,0.379,0.949,17.517,-79.346,4.150
0.127,0.361,0.974,17.334,-78.430,0.610
0.110,0.304,1.022,24.658,-69.824,-5.920
0.105,0.262,0.988,30.884,-64.453,-8.728
0.103,0.228,0.931,29.602,-61.523,-10.742
0.104,0.239,0.937,20.325,-65.613,-10.498
0.101,0.293,1.021,-1.831,-70.923,-11.719
0.066,0.388,1.155,-4.456,-67.261,-13.550
0.037,0.371,1.101,6.775,-51.575,-21.240
0.024,0.341,1.054,12.573,-46.692,-26.062
0.021,0.318,1.052,18.250,-51.331,-33.691
0.009,0.272,1.084,19.287,-54.443,-35.645
0.003,0.286,1.089,15.686,-55.908,-35.950
-0.019,0.328,1.114,12.695,-54.626,-37.537
-0.026,0.328,1.088,12.573,-48.279,-44.250
-0.034,0.313,1.033,13.062,-47.241,-47.302
-0.035,0.321,1.043,10.498,-47.668,-52.246
-0.042,0.319,1.031,10.193,-46.509,-55.359
-0.046,0.304,1.039,9.888,-47.241,-61.157
-0.049,0.294,1.105,11.108,-47.485,-63.110
-0.047,0.302,1.134,15.930,-43.091,-67.932
-0.047,0.271,1.130,19.531,-39.551,-71.167
-0.047,0.245,1.103,19.897,-35.156,-75.073
-0.048,0.239,1.070,15.076,-34.973,-75.806
-0.043,0.243,1.114,6.714,-37.903,-78.491
-0.033,0.222,1.191,7.690,-36.133,-80.383
-0.030,0.192,1.175,11.963,-27.649,-82.397
-0.022,0.140,1.143,11.475,-25.635,-82.031
-0.018,0.132,1.158,9.155,-24.841,-80.811
-0.010,0.113,1.193,4.578,-21.423,-78.369
-0.009,0.104,1.182,3.418,-17.944,-77.026
-0.005,0.103,1.164,0.854,-12.329,-74.219
0.001,0.067,1.149,0.854,-10.925,-73.364
-0.001,0.037,1.107,1.221,-6.958,-68.970
0.005,0.041,1.073,-2.563,-7.080,-64.819
0.007,0.060,1.097,-8.728,-5.310,-58.472
0.007,0.050,1.076,-6.348,-1.648,-57.007
0.007,0.028,1.053,0.916,1.343,-53.772
0.012,-0.021,1.020,1.831,1.465,-51.147
0.010,-0.034,1.008,-0.305,1.587,-44.067
0.006,-0.005,0.989,-1.648,1.465,-40.466
0.006,0.005,0.999,-3.540,1.160,-37.659
0.004,-0.004,0.995,-6.165,2.991,-32.532
0.001,0.010,0.973,-6.042,4.211,-29.602
0.005,0.065,0.962,-4.517,1.831,-24.780
0.005,0.074,0.974,-3.174,0.122,-23.682
0.004,0.080,0.988,-0.244,0.671,-22.461
0.001,0.097,0.967,1.160,2.258,-22.278
-0.001,0.095,0.949,0.427,2.014,-22.400
-0.005,0.094,0.951,0.183,0.854,-21.851
1.335,-1.337,0.411,62.561,12.329,-79.285
1.273,-1.476,0.513,92.163,17.578,-59.570
1.067,-1.894,0.786,106.628,18.188,-43.091
0.943,-2.099,0.864,116.211,31.067,14.709
0.649,-2.173,0.788,109.985,40.955,56.335
0.473,-2.062,0.657,95.459,55.298,146.179
0.092,-1.760,0.378,95.825,53.223,188.171
-0.092,-1.543,0.278,100.952,44.556,228.699
-0.420,-1.011,0.134,109.131,20.508,302.734
-0.541,-0.748,0.134,109.375,5.737,330.566
-0.592,-0.478,0.261,119.202,-41.931,365.601
-0.502,0.307,0.855,125.671,-61.157,372.314
-0.452,0.676,0.961,140.259,-28.137,338.867
-0.378,0.901,0.636,146.545,1.099,302.551
-0.358,0.781,0.464,169.800,12.695,236.755
-0.362,0.389,0.246,176.086,3.418,224.182
-0.388,0.390,0.201,134.705,-15.747,244.995
-0.411,0.825,0.151,106.140,-22.400,257.324
-0.389,1.096,0.182,78.125,-37.415,241.882
-0.314,1.248,0.314,88.501,-43.152,212.952
-0.300,1.153,0.297,116.943,-42.053,159.485
-0.298,0.974,0.114,119.263,-44.617,146.851
-0.284,0.937,0.100,116.821,-55.786,141.846
-0.264,0.922,0.155,112.122,-83.801,139.587
-0.203,0.986,0.381,110.962,-92.712,137.634
-0.179,1.076,0.498,106.689,-96.069,125.732
-0.168,1.209,0.471,104.614,-92.041,116.272
-0.150,1.213,0.455,112.427,-97.717,93.994
-0.109,1.103,0.502,122.009,-104.980,82.275
-0.099,1.036,0.587,126.587,-120.300,67.444
-0.113,1.049,0.854,120.666,-124.634,65.186
-0.117,1.083,0.930,107.788,-117.737,58.777
-0.104,1.082,0.928,104.309,-111.938,52.979
-0.094,1.018,0.937,106.873,-108.765,38.574
-0.094,0.854,1.015,110.718,-110.840,33.508
-0.105,0.818,1.064,106.079,-115.784,34.363
-0.128,0.943,1.142,94.910,-114.380,38.208
-0.131,1.022,1.142,77.026,-102.356,34.546
-0.097,0.987,1.082,75.989,-97.534,26.489
-0.076,0.935,1.048,81.177,-97.351,10.132
-0.090,0.835,1.095,82.275,-101.379,3.052
-0.114,0.806,1.157,79.834,-102.966,-1.953
-0.159,0.811,1.129,70.007,-93.872,-8.667
-0.158,0.852,1.141,65.613,-91.614,-13.062
-0.145,0.890,1.184,70.740,-89.966,-32.104
-0.160,0.815,1.115,79.590,-84.961,-44.739
-0.191,0.587,0.979,93.994,-82.581,-64.209
-0.187,0.512,1.049,93.567,-90.088,-72.693
-0.182,0.499,1.194,78.247,-92.468,-80.933
-0.159,0.482,1.335,71.716,-77.209,-83.740
-0.118,0.474,1.325,67.017,-47.974,-89.722
-0.076,0.440,1.255,67.383,-39.673,-94.238
-0.090,0.447,1.143,67.261,-34.119,-102.356
-0.101,0.480,1.121,62.866,-45.349,-106.384
-0.099,0.474,1.224,49.316,-61.218,-116.089
-0.100,0.421,1.263,41.504,-55.847,-120.239
-0.104,0.395,1.206,26.978,-43.091,-123.962
-0.094,0.368,1.183,22.644,-41.870,-125.122
-0.088,0.361,1.238,25.818,-38.025,-129.395
-0.096,0.274,1.194,34.485,-29.846,-134.033
-0.094,0.212,1.143,44.495,-26.794,-140.381
-0.063,0.109,1.142,38.879,-31.616,-139.465
-0.040,0.072,1.162,20.630,-34.790,-132.751
0.013,-0.009,1.163,15.137,-31.982,-128.845
0.033,-0.058,1.160,9.277,-24.292,-119.080
0.073,-0.113,1.164,6.592,-22.034,-111.938
0.092,-0.112,1.180,4.822,-21.362,-103.882
0.115,-0.111,1.182,-0.977,-15.503,-88.684
0.121,-0.108,1.194,-7.019,-10.681,-82.642
0.118,-0.111,1.196,-10.132,-0.977,-73.242
0.104,-0.118,1.084,-7.568,2.869,-68.237
0.107,-0.112,1.066,-5.615,-1.282,-57.312
0.097,-0.079,1.109,-5.737,-3.723,-51.331
0.074,0.006,1.069,-10.254,1.465,-40.283
0.066,0.042,1.036,-13.184,6.287,-36.926
0.061,0.059,1.008,-8.179,11.719,-35.034
0.060,0.042,0.964,-2.747,10.986,-35.095
0.059,0.020,0.945,5.554,6.104,-32.227
0.055,-0.026,0.899,7.202,4.639,-28.564
0.056,-0.034,0.917,5.554,-0.183,-18.372
0.055,0.083,1.010,4.883,-2.869,-13.794
0.049,0.169,1.032,2.869,-1.770,-14.832
0.026,0.214,0.990,1.038,2.319,-18.982
0.020,0.182,0.932,1.648,10.925,-24.109
0.025,0.093,0.877,2.075,11.658,-23.315
0.030,0.083,0.903,5.859,6.470,-16.663
0.039,0.127,0.990,9.460,4.211,-13.550
0.033,0.149,1.012,11.597,4.517,-11.230
0.023,0.167,0.973,9.583,13.916,-8.240
0.034,0.234,0.898,2.991,14.832,-6.958
0.042,0.286,0.957,-11.536,4.150,-6.714
0.033,0.339,0.998,-10.925,3.601,-8.972
0.028,0.321,0.952,-0.244,9.521,-13.916
0.028,0.287,0.914,4.089,9.705,-14.282
0.029,0.293,0.914,8.423,7.141,-13.794
0.026,0.305,0.903,8.789,5.249,-14.404
0.023,0.292,0.922,5.737,1.709,-16.479
0.018,0.259,0.917,5.676,2.747,-16.602
0.019,0.256,0.893,6.714,4.150,-16.357
0.029,0.253,0.896,8.545,1.709,-18.616
0.032,0.215,0.905,10.254,0.122,-20.386
0.032,0.180,0.909,11.292,-0.854,-14.709
0.033,0.215,0.919,8.057,-1.892,-10.437
0.032,0.241,0.937,4.211,-5.310,-13.306
0.041,0.183,0.973,7.141,-6.531,-17.212
0.043,0.144,0.974,10.681,-4.700,-10.803
0.044,0.170,0.954,7.935,-3.967,-3.113
0.051,0.238,0.964,-1.099,-7.324,3.723
0.045,0.291,1.026,-1.709,-7.935,0.610
0.040,0.248,1.036,5.005,-0.977,-5.188
0.042,0.191,0.997,7.324,2.197,-3.967
0.047,0.202,0.982,7.751,1.099,-0.427
0.047,0.214,1.004,8.179,-0.488,-0.122
0.042,0.204,1.004,8.850,0.000,-0.122
0.045,0.211,0.975,7.935,3.357,-0.183
0.042,0.223,0.972,6.592,2.502,-1.404
0.043,0.225,0.982,3.235,0.671,-6.470
0.040,0.189,1.005,4.456,2.014,-6.531
0.042,0.186,0.991,8.118,5.554,-2.563
1.308,-0.712,0.654,39.185,69.824,-65.918
1.319,-0.862,0.602,39.673,81.116,-45.776
1.335,-0.938,0.556,42.419,81.177,-28.381
1.317,-0.942,0.560,44.495,84.595,1.038
1.232,-0.960,0.532,45.532,86.548,12.451
1.192,-0.956,0.495,55.420,87.708,32.043
1.106,-0.967,0.499,61.035,85.693,40.588
1.043,-1.000,0.572,72.510,82.336,57.434
0.876,-1.066,0.651,78.125,86.548,67.383
0.783,-1.073,0.607,84.961,98.389,91.919
0.557,-1.036,0.434,84.717,102.356,104.614
0.410,-1.034,0.316,85.510,105.103,116.760
0.258,-1.048,0.170,95.276,102.234,144.958
-0.094,-1.126,-0.051,102.539,91.553,162.537
-0.290,-1.128,-0.106,120.666,62.012,216.492
-0.641,-0.863,-0.172,129.333,43.396,249.451
-0.789,-0.651,-0.117,144.470,2.502,291.199
-0.987,-0.401,0.142,147.400,-16.296,302.246
-1.057,-0.228,0.253,137.085,-43.335,316.284
-1.208,0.167,0.213,136.658,-49.988,316.040
-1.250,0.324,0.194,143.616,-72.693,308.594
-1.233,0.726,0.384,143.860,-85.449,303.589
-1.178,0.998,0.520,157.532,-97.168,272.644
-1.047,1.145,0.545,167.603,-92.407,241.028
-1.012,1.044,0.438,157.959,-87.769,189.697
-0.938,1.251,0.539,142.151,-99.792,179.993
-0.868,1.476,0.717,139.343,-113.342,155.457
-0.707,1.517,0.721,151.611,-105.286,128.601
-0.646,1.335,0.616,180.664,-104.858,68.115
-0.550,0.984,0.691,186.401,-119.202,50.232
-0.511,1.010,0.831,173.523,-142.029,40.100
-0.415,1.304,1.099,165.161,-145.447,32.166
-0.359,1.301,1.207,163.513,-148.193,-7.812
-0.249,0.927,1.332,165.405,-150.757,-25.085
-0.188,0.751,1.416,156.250,-160.339,-24.841
-0.085,0.824,1.640,147.583,-166.870,-16.479
-0.078,0.973,1.765,137.085,-177.795,-21.667
-0.106,0.907,1.866,136.292,-177.612,-35.583
-0.111,0.749,1.829,129.761,-161.438,-50.110
-0.063,0.636,1.708,120.483,-143.372,-46.936
-0.026,0.681,1.685,98.083,-117.187,-48.157
-0.011,0.685,1.781,89.844,-109.314,-57.556
-0.016,0.605,1.704,86.182,-90.881,-75.745
-0.026,0.438,1.485,78.491,-88.989,-77.820
-0.031,0.434,1.439,49.866,-98.389,-72.876
-0.031,0.471,1.412,40.100,-106.995,-77.271
-0.046,0.434,1.445,41.138,-116.211,-92.163
-0.038,0.305,1.497,48.218,-101.929,-98.511
-0.009,0.252,1.547,52.246,-67.871,-106.201
0.035,0.237,1.590,49.866,-53.345,-107.239
0.049,0.200,1.502,38.574,-24.658,-106.079
0.053,0.108,1.263,27.039,-18.494,-103.638
0.055,0.097,1.206,0.183,-26.672,-94.543
0.041,0.112,1.199,-5.493,-29.968,-90.759
0.030,0.115,1.154,2.380,-27.344,-91.736
0.019,0.143,1.146,9.583,-29.724,-96.008
0.014,0.111,1.151,26.611,-30.823,-106.812
0.020,0.033,1.069,27.710,-28.809,-108.459
0.017,0.018,1.061,13.550,-29.175,-101.624
0.003,0.015,1.103,8.423,-27.222,-96.741
-0.002,-0.006,1.084,10.803,-15.564,-91.125
-0.008,-0.052,1.091,13.428,-13.733,-88.379
-0.025,-0.035,1.112,16.968,-13.123,-81.665
-0.030,-0.043,1.087,11.169,-6.531,-77.637
-0.029,-0.038,1.046,8.606,-5.066,-74.951
-0.019,-0.012,1.062,7.996,-3.906,-72.876
-0.007,-0.035,1.062,10.803,-0.916,-72.449
-0.005,-0.067,1.047,9.583,5.615,-65.125
-0.004,-0.046,1.072,5.920,6.592,-58.411
-0.004,-0.002,1.083,1.587,8.057,-49.011
-0.012,0.064,1.089,0.977,9.155,-46.997
-0.019,0.081,1.090,2.197,12.817,-45.471
-0.027,0.095,1.047,3.418,14.648,-44.922
-0.025,0.098,1.005,6.042,15.686,-43.762
-0.024,0.068,0.946,7.568,14.404,-43.457
-0.025,0.057,0.935,14.343,7.080,-39.734
-0.040,0.053,0.945,16.602,3.357,-37.170
-0.044,0.071,0.956,16.602,1.770,-33.142
-0.052,0.088,0.966,14.832,4.517,-32.898
-0.051,0.058,0.953,10.864,12.146,-33.020
-0.037,0.021,0.926,9.033,13.245,-30.823
-0.028,0.030,0.926,4.639,10.498,-25.635
-0.029,0.039,0.945,4.089,9.033,-23.621
-0.031,0.051,0.951,5.554,7.080,-21.179
-0.029,0.077,0.969,8.362,-0.244,-15.747
-0.017,0.161,1.022,9.277,-2.686,-14.465
-0.022,0.169,1.028,9.460,3.052,-18.738
-0.035,0.083,0.982,8.362,8.545,-21.179
-0.032,0.046,0.963,3.052,14.648,-19.836
-0.026,0.024,0.932,3.113,15.320,-16.785
-0.023,0.030,0.918,5.676,10.742,-10.254
-0.022,0.058,0.939,3.296,6.836,-7.568
-0.024,0.089,0.937,-1.709,3.296,-1.709
-0.021,0.190,0.964,-3.418,1.770,-0.916
-0.021,0.209,0.978,-1.282,3.357,-6.897
-0.019,0.148,0.932,0.427,6.348,-10.742
-0.017,0.116,0.907,-0.793,7.690,-13.489
-0.011,0.100,0.923,-1.465,5.920,-13.062
-0.015,0.086,0.943,-0.549,4.272,-12.207
-0.022,0.093,0.974,1.221,2.258,-8.911
-0.026,0.101,0.982,0.916,2.197,-7.874
-0.029,0.092,0.975,0.427,5.188,-7.507
-0.027,0.062,0.944,0.305,5.493,-6.226
-0.024,0.065,0.940,-1.831,0.305,-1.404
-0.026,0.080,0.968,-2.930,-3.113,0.305
-0.027,0.080,0.983,-1.648,-5.554,2.686
-0.024,0.081,0.989,-0.610,-4.944,4.150
-0.022,0.092,0.987,-0.488,-4.395,6.592
-0.021,0.107,0.980,-1.831,-4.944,6.531
-0.020,0.099,0.974,-5.249,-5.737,6.470
-0.018,0.111,1.002,-5.432,-5.920,7.324
-0.015,0.134,0.998,-2.319,-4.150,8.606
-0.009,0.153,0.969,-1.709,-3.296,8.179
-0.009,0.148,0.969,-0.122,-2.991,7.446
-0.008,0.143,0.957,0.793,-3.113,7.385
-0.010,0.154,0.967,-1.831,-4.822,6.287
-0.011,0.143,0.977,-2.136,-4.089,5.005
-0.014,0.135,0.978,-1.526,-2.808,5.188
-0.021,0.154,1.014,-2.014,-3.479,5.737
1.243,-0.792,0.747,40.771,98.755,-77.820
1.228,-0.908,0.710,49.805,101.624,-47.424
1.185,-1.029,0.627,49.561,100.342,-27.344
1.154,-1.035,0.588,57.434,98.511,10.925
1.060,-1.075,0.526,66.528,98.328,25.635
0.928,-1.145,0.359,76.355,101.013,55.359
0.855,-1.124,0.235,74.036,89.294,90.210
0.712,-1.044,0.072,74.341,74.280,107.788
0.641,-1.039,0.054,83.618,41.992,144.043
0.456,-1.094,0.045,91.370,26.062,166.199
0.335,-0.980,0.104,80.566,0.977,217.102
0.072,-0.599,0.211,74.280,-0.183,233.704
-0.061,-0.435,0.216,73.486,-0.122,240.173
-0.340,-0.161,0.174,61.768,1.892,235.413
-0.463,-0.145,0.137,56.641,9.094,231.567
-0.552,-0.207,0.037,70.435,24.841,231.567
-0.722,-0.312,-0.209,83.496,17.334,233.276
-0.813,-0.297,-0.244,105.347,-29.663,240.601
-0.978,-0.040,-0.011,101.013,-52.856,247.009
-1.034,0.182,0.163,92.651,-80.383,252.747
-1.073,0.491,0.411,102.783,-83.923,243.713
-1.060,0.519,0.429,121.338,-67.383,222.046
-1.017,0.802,0.338,116.211,-60.791,221.069
-0.958,1.098,0.347,112.671,-68.054,208.435
-0.787,1.337,0.372,125.549,-71.899,184.998
-0.715,1.251,0.352,155.945,-79.407,134.888
-0.621,0.996,0.320,164.307,-88.501,120.422
-0.608,0.901,0.364,156.677,-118.408,112.366
-0.629,0.985,0.741,143.738,-134.338,114.868
-0.628,1.142,1.002,129.395,-137.207,113.342
-0.557,1.336,1.157,139.282,-123.657,100.647
-0.505,1.251,1.097,161.743,-113.403,62.195
-0.499,0.952,1.204,157.654,-120.056,49.622
-0.526,0.928,1.318,139.954,-127.197,42.847
-0.504,1.079,1.554,135.071,-124.756,37.842
-0.458,1.119,1.611,140.991,-108.643,13.977
-0.335,1.057,1.571,147.339,-99.121,-1.038
-0.291,0.942,1.570,151.245,-88.623,-30.212
-0.275,0.753,1.658,145.508,-89.416,-40.710
-0.285,0.760,1.725,120.850,-96.375,-50.781
-0.285,0.864,1.723,107.727,-93.872,-55.237
-0.246,0.892,1.594,94.055,-78.186,-72.083
-0.129,0.889,1.461,90.454,-75.684,-84.534
-0.108,0.834,1.520,87.280,-75.806,-99.121
-0.128,0.590,1.570,88.013,-67.383,-127.563
-0.139,0.444,1.579,87.219,-59.387,-136.169
-0.143,0.265,1.550,83.557,-43.030,-137.512
-0.126,0.218,1.459,82.764,-33.630,-135.132
-0.084,0.125,1.336,70.984,-25.513,-133.850
-0.073,0.070,1.269,57.617,-22.827,-132.568
-0.038,0.051,1.240,21.423,-18.921,-122.681
-0.023,0.112,1.277,6.409,-18.127,-114.929
-0.006,0.307,1.228,2.197,-8.118,-106.506
0.003,0.345,1.204,4.578,-3.845,-110.229
0.033,0.152,1.209,8.057,-5.554,-125.793
0.055,0.029,1.204,7.019,-6.958,-129.089
0.080,-0.034,1.207,2.075,-8.606,-122.803
0.083,-0.033,1.213,8.301,-9.094,-113.770
0.091,-0.041,1.180,10.437,-7.935,-109.985
0.105,-0.050,1.130,5.249,-4.578,-103.027
0.139,-0.077,1.065,-1.831,-5.554,-99.365
0.147,-0.048,1.083,-13.245,-9.033,-91.553
0.137,0.002,1.142,-12.207,-7.507,-89.233
0.128,0.015,1.176,-8.667,-4.944,-87.097
0.101,0.066,1.234,-7.263,3.113,-82.520
0.088,0.079,1.212,-8.667,11.169,-81.909
0.094,0.018,1.084,-8.972,28.748,-82.703
0.102,-0.046,1.019,-7.874,31.799,-83.008
0.111,-0.124,0.961,-7.324,25.574,-77.087
0.115,-0.125,0.947,-4.761,22.705,-71.411
0.135,-0.121,0.876,2.563,25.818,-61.035
0.150,-0.130,0.849,4.822,27.649,-58.044
0.162,-0.150,0.831,5.371,29.724,-53.284
0.168,-0.142,0.801,3.174,30.884,-46.875
0.179,-0.117,0.766,-4.395,21.179,-33.203
0.171,-0.076,0.841,-7.507,8.423,-29.236
0.158,-0.014,0.939,-6.470,-1.038,-23.804
0.142,0.059,0.995,-2.747,6.165,-21.667
0.142,0.080,0.957,2.686,16.663,-19.104
0.144,0.076,0.895,2.869,15.808,-19.287
0.138,0.066,0.893,2.258,10.986,-16.479
0.130,0.129,0.898,1.953,9.277,-13.733
0.126,0.161,0.923,2.380,6.409,-12.207
0.110,0.151,0.940,4.761,6.836,-12.573
0.104,0.140,0.959,6.042,6.348,-11.719
0.096,0.159,0.971,6.042,7.141,-10.620
0.095,0.154,0.939,6.348,9.277,-9.949
0.093,0.143,0.914,5.554,8.972,-7.446
0.090,0.176,0.893,3.052,6.226,-6.042
0.090,0.190,0.912,-1.221,0.183,-5.676
0.098,0.173,0.926,0.732,0.305,-5.493
0.098,0.162,0.919,5.615,0.366,-3.174
0.098,0.226,0.945,5.005,-2.136,-2.441
0.101,0.238,0.963,2.930,-4.700,-5.066
0.108,0.192,0.947,4.883,-3.845,-5.615
0.110,0.173,0.938,8.118,-3.113,-4.822
0.107,0.177,0.943,8.423,-4.578,-2.197
0.113,0.203,0.955,4.578,-5.615,-2.441
0.117,0.185,0.978,-0.854,-7.263,-3.845
0.119,0.153,1.006,1.160,-6.348,-3.296
0.117,0.165,1.021,6.165,-6.348,-1.526
0.113,0.199,1.017,3.601,-6.592,-2.136
0.110,0.183,1.016,-2.869,-6.104,-3.479
0.109,0.169,1.016,-1.038,-4.639,-2.563
0.109,0.174,1.003,7.019,-2.197,-1.343
0.109,0.158,0.967,6.287,-2.625,-1.770
0.108,0.145,0.972,-0.122,-4.578,-0.732
0.105,0.145,0.988,0.244,-4.089,0.732
0.103,0.157,0.989,2.808,-3.235,1.648
0.103,0.143,0.965,5.615,-3.113,1.221
0.103,0.138,0.968,2.136,-4.578,1.465
0.099,0.148,0.982,-2.136,-5.371,3.723
0.096,0.188,0.979,-0.427,-4.639,3.784
0.094,0.196,0.987,-0.305,-5.127,1.892
0.084,0.179,1.000,-0.916,-3.235,1.099
0.083,0.170,0.983,0.427,1.526,0.549
0.087,0.183,0.968,-0.183,0.793,0.122
0.089,0.184,0.983,-1.587,-1.831,-1.587
0.086,0.156,0.982,-0.122,-1.526,-1.953
1.157,-0.703,0.911,20.508,85.815,-65.002
1.132,-0.845,0.872,3.967,115.784,-38.635
1.102,-1.114,0.667,7.568,122.437,-19.897
1.092,-1.189,0.605,28.015,105.896,24.841
1.024,-1.186,0.535,34.668,97.595,44.922
0.959,-1.178,0.481,42.297,91.858,73.853
0.785,-1.196,0.416,46.753,87.097,88.867
0.705,-1.122,0.377,56.396,75.195,129.395
0.579,-0.794,0.324,54.626,68.054,147.339
0.497,-0.643,0.321,47.363,61.401,165.527
0.317,-0.475,0.174,48.096,61.279,170.715
0.216,-0.391,0.101,48.218,56.641,176.819
0.122,-0.271,0.061,45.044,38.269,189.697
-0.075,-0.066,0.145,42.908,30.273,190.857
-0.212,-0.053,0.203,50.659,26.917,185.913
-0.508,-0.143,0.101,64.026,29.602,183.777
-0.621,-0.194,-0.036,103.455,20.813,190.430
-0.739,-0.151,-0.244,116.882,6.348,201.782
-0.749,0.003,-0.223,115.173,-33.752,222.778
-0.743,0.388,0.024,110.474,-51.025,222.717
-0.756,0.515,0.123,112.122,-67.078,209.961
-0.765,0.770,0.307,111.877,-71.045,205.627
-0.733,0.918,0.419,123.901,-77.148,188.721
-0.615,1.057,0.560,136.902,-77.820,171.204
-0.580,1.065,0.589,144.592,-78.064,153.503
-0.555,1.095,0.612,139.038,-79.163,131.104
-0.470,1.212,0.677,137.756,-83.313,121.765
-0.426,1.268,0.738,146.973,-94.971,96.619
-0.326,1.327,0.865,150.330,-95.154,80.872
-0.291,1.246,0.929,160.583,-88.135,48.340
-0.245,1.031,1.003,167.175,-86.670,37.170
-0.234,0.972,1.061,166.321,-99.731,24.231
-0.214,1.047,1.325,160.095,-107.849,19.226
-0.202,1.104,1.418,157.104,-103.943,-1.770
-0.157,1.006,1.417,161.438,-99.854,-16.235
-0.144,0.901,1.364,164.673,-100.830,-29.785
-0.169,0.679,1.354,158.875,-124.634,-51.514
-0.174,0.584,1.438,151.611,-142.273,-56.580
-0.167,0.431,1.504,134.216,-154.419,-54.443
-0.165,0.409,1.479,97.595,-139.160,-44.434
-0.159,0.581,1.591,76.477,-134.338,-40.100
-0.161,0.678,1.652,58.777,-117.004,-48.462
-0.174,0.663,1.561,59.875,-102.783,-60.303
-0.179,0.548,1.456,61.646,-82.031,-82.092
-0.175,0.295,1.335,59.448,-79.834,-86.487
-0.172,0.254,1.353,50.293,-81.787,-85.571
-0.167,0.353,1.404,42.480,-79.590,-85.937
-0.161,0.444,1.441,18.860,-70.496,-96.252
-0.162,0.499,1.398,12.817,-61.707,-106.506
-0.161,0.448,1.312,15.869,-48.157,-126.282
-0.168,0.331,1.315,18.799,-49.133,-133.301
-0.169,0.295,1.333,34.729,-47.058,-144.348
-0.161,0.171,1.220,45.105,-44.312,-148.865
-0.152,0.107,1.192,52.917,-48.218,-153.259
-0.132,0.003,1.231,50.049,-48.401,-153.503
-0.118,-0.030,1.244,35.278,-39.673,-148.804
-0.100,-0.071,1.257,27.283,-34.912,-145.142
-0.074,-0.112,1.242,23.193,-27.771,-138.000
-0.049,-0.177,1.218,27.466,-22.339,-132.568
0.005,-0.320,1.138,26.978,-19.897,-127.625
0.032,-0.348,1.130,16.846,-19.226,-110.474
0.061,-0.311,1.163,12.146,-18.677,-101.013
0.070,-0.301,1.171,9.644,-12.024,-87.891
0.095,-0.286,1.191,9.949,-7.324,-82.886
0.108,-0.268,1.178,10.437,6.348,-76.233
0.131,-0.300,1.109,7.385,13.123,-74.097
0.133,-0.308,1.110,2.991,17.029,-70.618
0.117,-0.258,1.089,1.465,22.583,-60.181
0.100,-0.230,1.052,3.418,25.696,-55.237
0.085,-0.197,1.016,2.869,26.917,-45.959
0.063,-0.130,1.005,0.122,26.306,-42.480
0.051,-0.107,1.003,0.061,30.151,-39.124
0.041,-0.092,0.977,2.502,32.410,-38.208
0.037,-0.089,0.972,8.118,33.264,-35.767
0.025,-0.081,0.987,10.315,32.410,-34.058
0.021,-0.085,0.986,10.620,32.104,-29.175
0.022,-0.074,0.954,9.033,31.250,-25.330
0.026,-0.044,0.955,6.714,28.442,-20.752
0.026,0.033,1.017,1.770,21.973,-12.817
0.027,0.075,1.041,1.160,20.752,-10.620
0.022,0.098,0.998,1.953,25.024,-10.986
0.017,0.083,0.975,3.052,26.672,-11.597
0.016,0.075,0.958,4.456,23.621,-9.827
0.018,0.081,0.962,3.906,19.897,-8.545
0.014,0.059,0.988,4.578,14.954,-6.653
0.009,0.054,1.013,5.859,14.160,-5.127
0.009,0.107,1.031,6.042,12.451,-1.892
0.009,0.115,0.981,4.761,13.245,-1.953
0.008,0.077,0.937,-3.357,13.306,-2.869
0.011,0.067,0.953,-7.080,12.390,-1.953
0.018,0.091,0.946,-8.606,13.367,2.136
0.019,0.116,0.939,-7.507,12.695,3.784
0.023,0.137,0.935,-1.404,7.935,4.150
0.029,0.154,0.927,0.549,5.554,3.113
0.032,0.148,0.929,2.502,2.136,0.610
0.033,0.127,0.927,3.174,1.282,-0.183
0.034,0.125,0.941,0.427,-0.366,-1.465
0.036,0.117,0.955,-1.038,0.610,-2.319
0.036,0.100,0.958,-1.465,1.648,-3.113
0.039,0.108,0.987,0.671,0.061,-2.686
0.040,0.115,0.983,4.883,-0.854,-2.991
0.041,0.082,0.952,3.601,-0.549,-3.113
0.042,0.068,0.961,0.916,-1.465,-2.686
0.047,0.096,0.996,0.122,-6.165,-0.427
0.047,0.101,0.992,1.099,-6.104,-0.183
0.047,0.088,0.983,1.587,-2.502,-0.183
0.045,0.069,0.969,1.587,-1.465,0.671
0.045,0.084,0.962,0.122,-4.639,1.709
0.043,0.103,0.978,-1.221,-7.080,1.221
0.042,0.085,0.980,-0.977,-7.202,1.099
0.047,0.077,1.005,-0.427,-7.385,2.319
0.047,0.095,1.025,-0.305,-7.019,3.540
0.046,0.102,1.023,-0.671,-5.310,2.930
0.046,0.091,1.009,-1.221,-3.174,2.441
0.046,0.085,0.991,-1.526,-0.793,3.662
0.046,0.113,0.998,-1.587,-2.441,4.700
0.044,0.131,1.004,-0.427,-3.723,4.333
0.042,0.119,0.987,-0.122,-2.808,3.479
0.042,0.118,0.988,-2.930,-2.319,3.113
1.348,-0.363,1.173,16.724,84.656,-75.195
1.371,-0.538,1.226,-5.920,113.831,-55.725
1.420,-0.785,1.146,-8.301,127.502,-43.213
1.395,-0.907,1.070,17.273,139.160,-21.301
1.253,-1.190,0.944,33.569,138.367,-9.277
1.154,-1.297,0.933,40.894,137.817,26.062
0.933,-1.328,0.820,38.208,143.127,47.668
0.796,-1.296,0.741,37.354,148.682,85.083
0.480,-1.205,0.501,41.443,149.841,100.464
0.325,-1.147,0.327,48.401,148.560,114.380
0.025,-1.059,0.016,65.430,121.704,139.099
-0.169,-1.041,-0.080,73.364,101.868,152.527
-0.550,-1.010,-0.537,88.806,97.717,190.857
-0.714,-0.995,-0.833,86.670,97.656,213.623
-0.863,-0.965,-1.009,79.407,40.161,249.268
-1.116,-0.762,-0.959,85.327,-1.587,260.681
-1.226,-0.587,-0.819,98.083,-77.087,280.884
-1.397,-0.009,-0.273,93.140,-111.572,291.382
-1.411,0.362,0.089,59.692,-144.775,293.945
-1.283,1.084,0.693,47.119,-133.972,279.724
-1.189,1.205,0.753,73.303,-71.045,223.938
-1.060,1.022,0.554,95.886,-44.556,199.768
-0.985,1.069,0.494,110.352,-49.011,187.561
-0.795,1.568,0.588,108.948,-65.613,182.678
-0.704,1.750,0.617,142.029,-80.383,141.296
-0.524,1.633,0.485,167.480,-78.979,108.643
-0.475,1.386,0.400,191.956,-88.318,57.983
-0.408,1.030,0.467,192.322,-104.980,48.645
-0.366,0.960,0.630,192.078,-123.840,44.922
-0.335,0.797,0.915,187.195,-140.381,37.659
-0.354,0.736,1.008,173.767,-138.184,35.645
-0.411,0.799,1.165,135.010,-133.728,38.086
-0.416,0.885,1.184,125.183,-131.348,37.781
-0.391,0.951,1.225,127.869,-135.315,23.193
-0.338,0.949,1.464,131.165,-140.137,11.902
-0.337,0.883,1.558,127.930,-132.202,-6.897
-0.316,0.748,1.538,122.803,-122.070,-11.841
-0.304,0.720,1.473,111.206,-111.755,-16.235
-0.288,0.716,1.490,104.126,-115.112,-18.494
-0.293,0.715,1.566,94.116,-121.399,-25.330
-0.311,0.729,1.584,89.172,-115.967,-29.053
-0.315,0.751,1.534,78.491,-102.722,-39.734
-0.301,0.773,1.458,74.585,-99.915,-47.485
-0.294,0.763,1.456,80.627,-96.924,-66.833
-0.285,0.674,1.473,87.952,-95.764,-79.102
-0.284,0.579,1.513,97.290,-90.759,-103.638
-0.279,0.373,1.471,95.032,-83.313,-111.816
-0.254,0.283,1.448,87.097,-75.989,-116.882
-0.205,0.142,1.423,62.378,-61.279,-122.437
-0.178,0.094,1.339,48.401,-51.758,-121.582
-0.143,0.067,1.268,20.691,-50.415,-112.000
-0.071,0.140,1.344,11.658,-57.312,-105.774
-0.048,0.196,1.358,11.780,-52.795,-101.379
0.014,0.183,1.262,16.418,-47.791,-102.905
0.042,0.154,1.248,23.560,-48.218,-105.286
0.060,0.114,1.256,24.292,-48.950,-105.774
0.055,0.122,1.308,19.592,-48.767,-109.070
0.020,0.030,1.342,19.409,-40.588,-112.793
0.012,-0.058,1.256,20.447,-15.930,-113.464
0.014,-0.110,1.158,18.860,-12.451,-109.985
0.003,-0.086,1.162,18.860,-12.817,-105.957
-0.026,-0.075,1.105,20.142,-5.188,-100.830
-0.036,-0.093,1.067,18.921,1.465,-99.121
-0.045,-0.123,0.985,20.264,10.925,-95.032
-0.044,-0.144,0.963,21.729,12.451,-92.834
-0.035,-0.147,0.994,23.437,10.620,-84.961
-0.035,-0.109,1.013,21.240,8.789,-77.148
-0.042,-0.019,1.049,18.799,7.874,-75.195
-0.053,0.026,1.077,15.686,9.705,-73.669
-0.079,0.091,1.095,15.808,15.076,-73.486
-0.080,0.105,1.074,20.874,29.175,-74.341
-0.067,0.064,1.000,23.743,33.813,-75.684
-0.067,0.069,0.964,29.297,32.227,-76.111
-0.070,0.107,0.945,31.860,27.344,-76.294
-0.067,0.095,0.970,32.227,23.682,-75.867
-0.057,0.084,0.991,31.067,26.123,-70.374
-0.030,0.052,0.909,32.166,31.311,-67.932
-0.017,0.022,0.868,31.067,32.227,-66.284
0.002,-0.042,0.923,29.114,27.527,-65.430
0.004,-0.072,0.938,26.917,22.705,-57.312
0.014,-0.056,0.925,23.621,19.653,-48.584
0.020,-0.019,0.934,19.836,13.489,-35.706
0.029,0.040,0.987,20.020,11.047,-33.142
0.028,0.040,1.003,23.865,10.193,-31.555
0.032,0.038,0.985,24.170,10.742,-30.518
0.034,0.042,1.036,18.311,7.507,-26.001
0.034,0.047,1.040,16.724,9.949,-23.804
0.035,0.070,1.031,15.198,14.221,-21.240
0.034,0.061,1.015,13.367,14.038,-20.935
0.035,0.042,0.992,12.390,12.695,-16.479
0.028,0.068,0.936,12.756,10.620,-13.550
0.023,0.089,0.939,7.996,2.319,-13.733
0.017,0.038,0.985,6.653,-0.427,-14.893
0.016,0.017,0.967,10.315,0.854,-11.169
0.007,0.052,0.974,12.390,0.366,-8.850
0.001,0.090,1.006,12.024,-0.977,-8.667
-0.001,0.077,1.014,4.333,2.808,-13.000
0.007,-0.006,0.959,1.831,6.104,-11.780
0.009,0.012,0.947,6.714,4.944,-4.944
0.005,0.045,0.930,10.681,1.465,-4.028
0.010,0.033,0.941,2.869,-7.446,-4.150
0.016,0.015,1.005,-1.831,-8.301,-2.930
0.017,0.018,1.003,2.319,-4.089,0.732
0.013,0.013,0.989,6.165,-4.517,2.197
0.013,0.032,0.991,2.563,-9.277,4.089
0.010,0.064,1.035,-2.991,-9.888,3.784
0.010,0.052,1.019,-5.920,-7.141,3.418
0.015,0.052,0.989,-4.089,-3.784,4.700
0.018,0.077,0.994,-2.991,-6.226,4.944
0.016,0.084,1.007,-5.310,-8.728,3.845
0.015,0.063,1.019,-5.676,-7.141,3.662
0.018,0.054,1.000,-3.174,-4.272,5.798
0.021,0.075,1.013,-3.113,-6.165,6.592
0.019,0.072,1.023,-3.601,-6.409,5.493
0.014,0.065,1.008,-3.296,-5.066,5.737
0.014,0.088,1.021,-3.845,-4.944,6.409
0.013,0.100,1.038,-5.371,-3.235,4.639
0.007,0.057,1.022,-4.883,-0.549,3.540
0.006,0.051,1.013,-3.601,1.160,4.578
-0.851,1.205,1.009,93.994,-118.408,237.854
-0.785,1.229,1.036,101.440,-94.421,182.922
-0.693,1.032,1.026,110.779,-86.304,156.616
-0.670,1.010,1.013,131.714,-79.163,120.422
-0.615,1.093,1.042,140.564,-78.369,105.408
-0.574,1.099,1.019,155.090,-71.655,73.364
-0.458,1.040,0.936,156.067,-71.045,58.716
-0.395,1.052,0.964,137.207,-76.416,38.696
-0.313,1.226,1.092,123.535,-76.782,30.518
-0.302,1.303,1.118,118.652,-70.129,2.747
-0.299,1.199,1.090,134.460,-67.688,-17.456
-0.280,1.045,1.053,177.246,-69.824,-56.580
-0.208,0.692,1.072,184.448,-73.914,-69.397
-0.187,0.552,1.126,163.818,-82.275,-76.477
-0.220,0.394,1.328,148.804,-86.304,-73.792
-0.238,0.382,1.404,137.817,-87.402,-69.153
-0.162,0.460,1.386,125.549,-80.872,-61.462
-0.117,0.430,1.331,116.211,-75.867,-62.378
-0.093,0.380,1.336,84.045,-73.853,-62.500
-0.094,0.377,1.524,70.740,-74.280,-60.364
-0.104,0.382,1.586,64.880,-65.002,-59.387
-0.111,0.383,1.565,67.871,-58.777,-59.692
-0.101,0.418,1.504,75.562,-46.387,-64.514
-0.099,0.396,1.324,74.524,-40.833,-70.435
-0.109,0.335,1.271,62.134,-38.940,-82.092
-0.124,0.223,1.256,54.626,-37.048,-85.388
-0.132,0.194,1.271,47.791,-30.090,-88.135
-0.153,0.183,1.240,47.791,-25.879,-88.928
-0.160,0.206,1.187,46.570,-21.423,-93.567
-0.164,0.193,1.108,46.814,-20.447,-100.769
-0.165,0.121,1.073,45.593,-15.381,-109.985
-0.151,0.003,1.035,44.922,-15.320,-109.192
-0.142,-0.002,1.060,39.734,-19.348,-104.553
-0.137,0.016,1.135,36.072,-18.860,-103.699
-0.129,0.004,1.106,33.569,-12.207,-103.943
-0.095,-0.035,1.030,32.349,-11.841,-103.638
-0.084,-0.041,1.035,31.189,-15.869,-102.112
-0.078,-0.019,1.074,31.189,-16.235,-102.173
-0.097,-0.018,1.136,27.222,-13.428,-104.675
-0.106,-0.015,1.133,22.217,-7.812,-106.445
-0.113,-0.000,1.084,20.996,-6.104,-107.727
-0.109,-0.019,1.050,18.677,-4.333,-111.511
-0.097,-0.078,1.014,17.883,-4.456,-112.244
-0.092,-0.092,1.018,17.578,-5.981,-108.765
-0.093,-0.044,1.036,17.700,-6.531,-106.567
-0.100,-0.021,1.048,16.174,-6.348,-106.628
-0.111,-0.034,1.098,12.451,-3.052,-109.009
-0.101,-0.114,1.096,11.902,0.122,-108.582
-0.093,-0.144,1.079,11.169,4.822,-103.760
-0.077,-0.172,1.040,11.047,5.493,-100.220
-0.070,-0.171,1.029,10.193,4.211,-91.980
-0.052,-0.151,1.036,8.545,2.380,-88.379
-0.041,-0.147,1.094,1.587,0.854,-82.214
-0.041,-0.128,1.128,-1.892,7.690,-76.599
-0.038,-0.131,1.124,-0.732,12.695,-74.890
-0.032,-0.153,1.090,0.732,17.212,-68.481
-0.013,-0.159,1.033,-1.587,15.503,-64.087
-0.006,-0.157,1.030,-7.202,10.864,-57.312
-0.003,-0.167,1.036,-7.263,10.620,-54.199
-0.000,-0.172,1.017,-4.395,13.245,-47.302
0.001,-0.173,0.963,-4.822,13.794,-43.457
0.004,-0.158,0.954,-8.179,10.986,-35.645
0.008,-0.121,0.959,-8.606,8.606,-32.227
0.008,-0.084,0.963,-7.568,4.272,-26.550
0.002,-0.032,0.968,-6.531,4.150,-25.269
-0.003,-0.033,0.961,-4.517,6.714,-24.292
-0.008,-0.062,0.935,-3.967,7.812,-23.437
-0.007,-0.072,0.945,-3.235,6.104,-20.630
-0.016,-0.084,0.985,-2.563,5.249,-18.860
-0.025,-0.086,0.985,1.099,5.188,-14.404
-0.032,-0.057,0.960,1.099,4.333,-12.085
-0.034,-0.044,0.975,-0.732,1.282,-9.277
-0.041,-0.028,0.988,0.427,1.953,-8.118
-0.044,-0.002,0.977,2.808,3.479,-4.883
-0.040,0.057,0.974,0.793,2.563,-3.784
-0.044,0.072,0.985,-2.075,2.075,-4.883
-0.050,0.081,1.001,-1.343,2.991,-5.859
-0.052,0.067,0.969,1.099,5.920,-7.507
-0.053,0.050,0.954,1.831,6.958,-7.568
-0.053,0.056,0.954,2.991,4.822,-5.554
-0.054,0.064,0.949,1.770,1.831,-5.127
-0.059,0.055,0.976,0.244,0.305,-5.310
-0.059,0.051,0.984,0.305,1.465,-4.333
-0.061,0.052,0.948,-0.427,2.991,-3.662
-0.066,0.064,0.950,-4.028,0.488,-2.991
-0.060,0.074,0.981,-3.601,-1.770,-3.296
-0.057,0.060,0.985,-1.831,-2.258,-2.502
-0.056,0.063,0.996,-1.099,-1.709,-1.404
-0.055,0.072,1.019,-0.732,-1.648,-1.465
-0.051,0.057,1.004,-0.793,-0.061,-1.831
-0.050,0.052,0.987,-2.686,2.136,-0.061
-0.049,0.081,0.976,-2.991,1.831,0.305
-0.047,0.077,0.983,-2.136,-1.526,-1.465
-0.044,0.073,0.995,-2.991,-2.563,-1.526
-0.045,0.075,0.996,-5.371,-0.916,-0.610
-0.044,0.076,1.004,-4.272,-0.061,-0.488
-0.042,0.083,1.006,-0.671,-1.526,-0.916
-0.042,0.099,0.994,-1.221,-2.075,-1.404
-0.044,0.089,1.002,-3.418,-0.793,-2.563
-0.041,0.071,0.993,-2.930,0.977,-2.625
-0.040,0.070,0.996,-2.380,0.793,-1.892
-0.042,0.063,0.993,-1.343,0.549,-1.526
-0.041,0.054,0.994,-0.183,-0.366,-0.854
-0.041,0.047,0.989,-1.587,-0.122,-0.366
-0.042,0.059,0.997,-4.639,-1.160,1.099
-0.044,0.066,1.008,-5.188,-0.916,1.221
-0.045,0.067,0.996,-4.944,0.183,1.343
-0.044,0.080,0.992,-2.991,0.977,1.526
-0.043,0.076,0.984,-1.526,0.977,1.160
-0.044,0.072,0.970,-0.305,-1.404,1.770
-0.046,0.092,1.007,-0.610,-3.418,1.892
-0.049,0.067,1.002,0.183,-0.549,1.099
-0.048,0.073,0.993,-0.732,1.587,1.343
-0.049,0.089,1.007,-4.395,0.977,1.038
-0.051,0.081,1.006,-3.662,1.099,0.793
-0.051,0.083,0.996,-1.343,1.709,1.892
-0.052,0.108,1.004,-1.526,1.221,1.587
-0.052,0.102,1.013,-2.258,1.465,-0.610
-0.052,0.077,0.986,-1.648,2.747,-0.366
0.858,0.406,1.240,-7.874,72.632,-75.134
0.897,0.259,1.203,5.249,102.783,-92.163
0.997,-0.106,1.015,3.479,115.295,-94.849
1.046,-0.302,1.000,-9.277,119.812,-86.365
1.109,-0.595,1.055,-16.296,119.934,-74.646
1.120,-0.629,1.017,-28.625,127.014,-42.847
1.120,-0.564,0.840,-32.043,129.944,-27.832
1.099,-0.567,0.802,-30.640,126.892,-6.653
1.036,-0.637,0.717,-26.611,125.732,5.371
1.019,-0.651,0.623,-29.663,116.089,41.992
0.924,-0.285,0.674,-33.325,97.351,64.514
0.854,-0.001,0.796,-7.996,70.679,79.224
0.711,0.156,0.860,12.207,77.820,65.308
0.631,0.015,0.780,45.349,99.731,38.879
0.506,-0.321,0.518,53.528,104.858,38.086
0.466,-0.410,0.396,59.814,97.900,55.847
0.396,-0.495,0.203,57.617,91.797,67.444
0.364,-0.528,0.151,53.467,78.796,91.187
0.377,-0.381,0.176,56.213,69.275,102.600
0.372,-0.290,0.242,75.134,53.955,103.760
0.308,-0.382,0.276,83.496,55.725,97.839
0.275,-0.499,0.213,87.280,59.143,97.229
0.241,-0.594,0.161,72.693,51.086,120.056
0.169,-0.612,0.205,61.584,42.114,139.038
0.128,-0.536,0.188,51.819,36.011,171.570
0.014,-0.369,0.043,49.194,32.288,180.176
-0.049,-0.332,0.001,51.270,9.216,192.200
-0.179,-0.230,0.049,59.204,-6.531,201.721
-0.246,-0.116,0.078,85.022,-33.752,225.281
-0.370,0.209,0.022,95.459,-44.800,232.605
-0.422,0.372,0.033,97.778,-58.411,235.901
-0.468,0.673,0.381,89.661,-93.506,234.497
-0.467,0.768,0.510,95.642,-96.130,227.356
-0.510,0.772,0.430,109.009,-67.200,207.031
-0.532,0.818,0.407,100.830,-62.683,201.355
