aX,aY,aZ,gX,gY,gZ
1.076,1.735,1.765,-18.738,-149.780,79.163
1.206,1.944,2.085,-53.528,-92.041,39.063
1.436,2.250,2.458,-55.298,-57.861,14.282
1.440,2.295,2.523,-50.720,7.202,-44.128
1.273,2.120,2.372,-46.326,39.856,-73.792
1.149,1.927,2.258,-41.504,82.336,-127.930
0.774,1.386,2.036,-41.687,94.666,-147.461
0.602,1.136,1.863,-56.702,122.986,-161.377
0.352,0.832,1.403,-64.514,131.775,-161.316
0.275,0.702,1.185,-69.275,113.159,-157.043
0.186,0.577,1.018,-79.834,97.839,-155.701
0.158,0.605,0.991,-92.102,105.347,-174.133
-0.043,0.414,0.751,-80.750,122.742,-186.584
-0.114,0.325,0.605,-66.528,150.696,-187.866
-0.232,0.248,0.488,-62.378,153.992,-189.087
-0.295,0.152,0.574,-57.190,143.250,-199.646
-0.416,-0.154,0.960,-49.377,140.381,-197.083
-0.406,-0.236,0.953,-12.329,172.241,-160.461
-0.131,-0.123,0.535,-2.319,188.965,-136.169
0.014,-0.040,0.384,-20.386,180.786,-107.727
0.204,0.074,0.403,-36.133,162.903,-100.098
0.246,0.091,0.472,-32.959,128.174,-82.397
0.281,0.099,0.289,-10.071,118.103,-71.045
0.384,0.042,-0.083,17.151,97.717,-53.833
0.427,0.017,-0.026,-12.329,57.983,-44.312
0.461,0.001,0.132,-13.611,52.612,-37.537
0.521,0.027,0.054,-10.254,80.078,-24.841
0.660,0.162,-0.050,-17.883,88.013,-21.667
0.667,0.176,-0.010,-13.794,79.041,-20.569
0.597,0.071,-0.061,-2.441,76.538,-18.616
0.606,0.088,-0.145,5.676,68.970,-5.310
0.700,0.245,-0.291,3.662,56.213,0.305
0.718,0.302,-0.288,-5.371,22.217,-1.892
0.605,0.214,-0.225,-2.930,9.888,-6.226
0.541,0.163,-0.265,6.653,-4.578,-3.296
0.467,0.116,-0.329,6.531,-15.015,2.197
0.441,0.094,-0.337,-2.258,-38.757,14.282
0.416,0.178,-0.374,-11.108,-50.415,20.447
0.406,0.269,-0.314,-30.334,-74.158,32.776
0.367,0.434,-0.250,-29.480,-78.186,33.813
0.355,0.471,-0.305,-21.240,-78.308,28.687
0.348,0.441,-0.320,-18.616,-87.769,26.611
0.338,0.368,-0.235,-17.578,-120.117,28.137
0.307,0.286,-0.082,-16.846,-129.456,32.043
0.302,0.297,-0.098,-16.907,-127.747,37.231
0.288,0.374,-0.174,-19.226,-132.568,35.706
0.266,0.362,-0.139,-25.513,-164.307,28.137
0.165,0.195,0.035,-29.297,-179.016,24.109
0.118,0.068,0.134,-34.729,-200.195,28.503
0.066,-0.032,0.410,-37.659,-209.717,38.635
0.068,-0.019,0.504,-38.208,-213.623,59.631
0.155,0.200,0.673,-42.603,-214.416,67.078
0.217,0.317,0.793,-32.593,-215.759,59.692
0.171,0.115,0.898,-18.921,-211.060,50.964
0.153,0.050,0.979,-27.344,-204.407,58.044
0.284,0.299,1.363,-37.048,-200.867,65.857
0.392,0.425,1.499,-34.241,-192.322,68.542
0.628,0.545,1.468,-9.949,-166.565,61.035
0.714,0.629,1.535,-13.245,-160.522,54.626
0.771,0.707,1.710,-30.334,-151.733,40.161
0.900,0.852,2.064,-29.846,-140.320,35.400
0.986,0.967,2.149,-19.958,-108.154,29.236
1.153,1.268,2.208,-16.052,-91.309,21.667
1.196,1.345,2.170,-1.282,-57.434,-6.104
1.162,1.305,2.006,3.174,-41.199,-20.264
1.126,1.302,1.934,10.986,-18.921,-41.565
1.088,1.329,1.822,15.076,-12.878,-52.246
1.063,1.325,1.801,10.437,7.507,-74.890
0.982,1.286,1.815,7.385,21.973,-86.731
0.921,1.239,1.789,9.583,57.617,-112.122
0.809,1.099,1.652,9.338,76.050,-124.939
0.744,1.010,1.580,7.996,92.529,-137.512
0.643,0.834,1.488,5.493,119.385,-155.762
0.592,0.762,1.429,4.456,131.958,-160.583
0.484,0.630,1.340,3.479,160.889,-171.875
0.235,0.270,1.110,2.930,175.293,-169.373
0.199,0.159,1.011,4.517,188.049,-143.921
0.175,0.042,0.787,4.517,188.660,-131.470
0.164,0.013,0.630,8.240,184.570,-110.596
0.202,-0.089,0.307,12.756,173.157,-104.675
0.208,-0.168,0.298,-4.272,137.268,-91.187
0.255,-0.169,0.405,-17.883,129.028,-79.407
0.313,-0.116,0.416,-31.860,126.526,-59.753
0.354,-0.036,0.352,-28.442,121.216,-52.979
0.350,-0.052,0.214,-4.639,101.501,-43.579
0.337,-0.159,0.031,-3.845,85.144,-39.490
0.340,-0.185,0.028,-9.155,66.895,-34.546
0.405,-0.049,0.049,-19.470,38.025,-25.635
0.423,0.000,0.064,-21.545,30.334,-24.475
0.432,0.002,0.084,-21.667,29.114,-23.193
0.431,-0.005,0.069,-21.301,33.630,-21.118
0.423,-0.037,0.019,-9.460,37.415,-14.282
0.426,-0.079,-0.108,-5.066,30.640,-6.470
0.442,-0.032,-0.124,-8.850,5.188,10.498
0.419,0.050,-0.118,-6.714,-6.348,13.184
0.394,0.033,-0.168,2.869,-23.560,14.709
0.331,0.010,-0.231,-3.662,-32.654,16.479
0.292,0.013,-0.211,-22.034,-45.166,20.691
0.139,-0.072,-0.232,-20.447,-50.964,24.963
0.064,-0.101,-0.290,-11.841,-76.416,44.373
-0.076,-0.049,-0.381,-12.573,-95.764,54.810
-0.146,-0.025,-0.423,-20.508,-134.277,71.228
-0.291,-0.019,-0.417,-30.640,-151.917,76.965
-0.358,-0.013,-0.345,-53.955,-179.993,89.355
-0.471,0.062,-0.247,-59.509,-191.101,98.328
-0.491,0.140,-0.213,-67.505,-223.145,120.789
-0.433,0.494,0.019,-72.327,-245.789,125.793
-0.414,0.594,0.243,-64.819,-287.598,110.291
-0.496,0.442,0.738,-57.068,-298.401,104.797
-0.533,0.350,0.829,-51.147,-297.791,122.192
-0.397,0.590,1.250,-66.101,-307.922,138.245
-0.190,0.969,1.734,-79.224,-332.092,146.301
0.240,1.560,2.569,-59.998,-320.679,129.211
0.328,1.539,2.680,-13.794,-254.700,82.581
0.377,1.332,2.725,-12.268,-221.985,66.650
0.417,1.304,2.755,-11.780,-160.339,47.485
0.466,1.207,2.537,2.930,-128.418,39.551
0.432,1.093,2.284,33.752,-80.627,23.926
0.359,0.948,1.802,37.476,-68.359,18.127
0.287,0.876,1.570,39.246,-52.795,-2.319
0.214,0.715,1.384,44.678,-48.462,-8.789
0.155,0.614,1.294,48.950,-44.189,-14.404
0.080,0.473,1.057,47.791,-31.860,-16.907
0.093,0.500,1.052,33.752,-26.794,-14.404
0.083,0.558,1.133,14.343,-15.259,-13.733
0.084,0.553,1.027,22.400,-6.348,-15.381
0.067,0.530,0.954,30.457,-7.263,-22.766
0.010,0.449,0.980,35.095,-11.658,-30.640
-0.072,0.307,0.913,34.912,-8.057,-28.015
-0.073,0.285,0.931,21.240,-6.531,-18.982
-0.108,0.237,0.993,18.860,-5.188,-14.648
-0.093,0.278,0.948,12.329,2.747,-3.296
0.010,0.480,0.890,5.066,3.540,-2.930
-0.002,0.468,0.927,0.549,-0.732,-12.512
-0.048,0.393,0.948,5.066,2.502,-11.658
0.003,0.441,0.914,7.263,6.042,-8.484
0.004,0.472,0.917,5.615,2.258,-11.292
-0.036,0.411,0.912,10.254,-0.488,-13.123
-0.041,0.417,0.883,10.254,-1.953,-10.620
-0.016,0.460,0.884,9.094,-4.272,-9.399
-0.044,0.420,0.941,6.226,-6.958,-12.024
-0.069,0.377,0.922,7.812,-4.578,-11.475
-0.067,0.382,0.848,7.812,-1.770,-5.859
-0.060,0.394,0.862,4.700,-4.761,-4.456
-0.093,0.356,0.928,4.944,-9.888,-3.723
-0.094,0.370,0.938,6.104,-9.888,-1.770
-0.081,0.392,0.932,3.784,-7.812,-1.099
-0.091,0.374,0.985,-0.610,-5.615,-1.099
-0.090,0.359,0.986,0.610,7.751,3.601
-0.063,0.372,0.933,2.380,10.559,5.554
-0.042,0.397,0.905,1.526,3.540,6.714
-0.016,0.446,0.928,-2.869,-0.427,5.371
-0.036,0.426,0.956,0.244,2.625,2.991
-0.046,0.386,0.882,5.981,4.944,3.723
-0.020,0.408,0.858,2.563,-2.075,3.357
-0.028,0.435,0.951,-0.793,-5.371,1.221
-0.047,0.409,0.946,7.141,-0.671,-0.122
-0.025,0.426,0.889,7.751,0.977,-0.549
-0.033,0.423,0.910,5.188,0.488,-2.441
-0.078,0.367,0.893,6.775,0.244,-3.662
-0.073,0.358,0.841,8.301,0.305,-1.221
-0.046,0.410,0.909,-2.075,-6.287,1.953
-0.058,0.400,0.928,-1.221,-6.897,1.099
-0.054,0.404,0.901,5.432,-3.479,1.343
-0.031,0.436,0.908,3.723,-4.150,0.488
-0.056,0.392,0.945,1.343,-3.235,-3.906
-0.059,0.370,0.915,3.906,-0.366,-2.747
-0.044,0.383,0.891,1.099,-3.540,0.488
-0.034,0.436,0.900,-1.953,-4.272,0.366
-0.036,0.432,0.902,-2.563,5.188,-1.709
-0.036,0.402,0.933,-1.587,7.751,-2.197
-0.021,0.414,0.939,1.587,5.493,-2.625
-0.038,0.394,0.924,3.967,2.625,-3.906
-0.054,0.363,0.904,4.944,-1.282,-3.723
-0.053,0.373,0.908,2.075,-2.136,-2.747
-0.051,0.385,0.921,1.587,-2.625,-2.991
-0.061,0.370,0.923,3.296,-3.723,-3.296
-0.071,0.355,0.929,2.502,-3.967,-1.343
-0.075,0.349,0.936,1.282,-0.977,0.793
-0.056,0.377,0.928,1.221,5.127,2.502
-0.034,0.409,0.904,2.136,5.371,1.160
-0.040,0.395,0.901,1.953,4.150,-0.427
-0.049,0.380,0.906,0.427,0.061,-1.465
-0.055,0.378,0.897,0.183,-1.038,-1.282
-0.060,0.385,0.916,-2.197,1.892,1.160
-0.047,0.399,0.912,0.244,4.944,2.441
-0.027,0.416,0.898,1.892,1.953,1.587
-0.034,0.417,0.903,0.671,-1.404,-0.427
-0.051,0.402,0.910,1.282,-0.610,-1.953
-0.039,0.396,0.880,2.197,0.854,-1.648
-0.030,0.411,0.881,-2.869,-2.380,-1.770
-0.047,0.402,0.915,-2.808,-3.174,-2.136
-0.056,0.382,0.910,2.258,-3.967,-2.319
-0.047,0.395,0.907,1.648,-5.493,-1.831
-0.045,0.397,0.911,-2.319,-3.967,-1.099
-0.057,0.380,0.941,-3.235,0.305,-0.122
-0.053,0.382,0.929,1.770,4.883,1.404
-0.026,0.402,0.899,1.953,2.258,0.610
-0.032,0.398,0.916,-1.526,-2.136,-1.404
-0.049,0.385,0.935,-0.549,-0.732,-1.160
-0.041,0.390,0.919,-0.366,0.549,0.183
-0.040,0.391,0.944,-2.930,-1.648,0.061
-0.053,0.384,0.950,0.305,-0.488,0.000
-0.043,0.397,0.944,2.380,1.770,0.610
-0.043,0.387,0.921,2.991,5.676,-0.732
-0.051,0.373,0.914,2.930,5.859,-1.587
-0.046,0.376,0.901,2.197,4.639,-0.488
-0.035,0.395,0.895,1.465,3.174,0.061
-0.031,0.406,0.895,1.709,0.183,-1.526
-0.047,0.388,0.908,2.808,0.366,-2.563
-0.058,0.363,0.885,3.906,0.977,-1.709
-0.048,0.371,0.870,0.366,-0.427,-0.916
-0.060,0.358,0.901,-2.808,-0.916,-0.671
-0.066,0.352,0.918,-1.099,1.953,2.502
-0.044,0.385,0.879,1.587,1.953,3.906
-0.033,0.395,0.876,-2.869,-2.991,2.869
-0.046,0.394,0.949,-5.920,-3.052,2.075
-0.037,0.402,0.947,-0.122,1.343,1.343
-0.022,0.404,0.911,1.099,0.549,0.488
-0.028,0.399,0.923,-1.343,-2.014,-0.244
-0.042,0.394,0.938,0.366,-0.977,-0.061
-0.039,0.396,0.929,4.761,1.648,0.000
-0.040,0.373,0.921,4.517,1.526,-0.183
-0.051,0.363,0.918,2.075,-0.488,1.526
-0.036,0.381,0.896,0.671,0.366,2.686
-0.025,0.399,0.918,-1.587,0.488,1.221
-0.031,0.398,0.940,0.061,-0.488,0.122
-0.035,0.397,0.936,-0.366,0.000,0.305
-0.040,0.392,0.943,-0.916,2.197,0.610
-0.041,0.382,0.936,2.319,3.296,0.977
-0.032,0.382,0.901,2.197,0.854,1.282
-0.031,0.391,0.921,-2.930,-4.517,0.305
-0.059,0.374,0.954,-1.282,-3.113,0.366
-0.052,0.374,0.938,4.456,2.686,2.380
-0.022,0.390,0.913,5.188,1.526,1.831
-0.034,0.384,0.926,1.099,-3.235,0.122
-0.056,0.380,0.934,0.916,0.122,1.587
-0.038,0.389,0.911,1.526,5.981,2.747
0.572,0.640,2.114,-5.493,-69.885,-21.973
0.616,0.717,2.376,7.141,-29.724,-38.269
0.480,0.551,2.487,12.268,2.258,-46.082
0.400,0.496,2.439,-12.024,61.279,-39.307
0.365,0.571,2.445,-25.452,83.923,-34.851
0.310,0.531,2.450,-36.987,126.526,-39.856
0.129,0.327,2.240,-42.358,150.269,-42.114
0.066,0.265,2.074,-56.274,184.448,-40.344
0.024,0.299,1.753,-58.105,191.101,-38.879
0.056,0.332,1.602,-59.753,187.988,-44.983
0.044,0.280,1.539,-70.374,182.678,-52.551
-0.023,0.248,1.568,-80.200,190.247,-64.148
-0.130,0.236,1.320,-68.481,201.599,-66.406
-0.154,0.147,0.755,-44.128,213.806,-69.580
-0.140,0.100,0.539,-61.462,199.585,-73.059
-0.180,0.030,0.434,-68.420,183.533,-76.355
-0.229,-0.040,0.419,-50.598,152.649,-77.881
-0.271,-0.162,0.361,-40.466,138.062,-70.923
-0.232,-0.124,0.349,-45.349,120.483,-49.133
-0.069,0.120,0.346,-54.932,123.047,-44.434
-0.007,0.218,0.398,-73.425,139.526,-55.054
-0.000,0.239,0.551,-74.036,151.123,-64.148
-0.015,0.151,0.519,-46.326,166.077,-72.205
-0.028,0.037,0.318,-31.860,161.621,-67.139
0.003,0.069,0.195,-21.912,143.188,-49.500
0.127,0.185,0.111,-28.259,137.085,-43.213
0.151,0.178,0.133,-33.997,135.681,-40.527
0.131,0.184,-0.103,-24.719,141.357,-40.161
0.166,0.171,-0.374,-9.338,136.353,-40.833
0.306,0.200,-0.448,-12.329,81.909,-38.513
0.311,0.224,-0.271,-23.499,27.527,-39.063
0.337,0.282,-0.188,-17.700,23.193,-38.574
0.362,0.326,-0.236,-5.310,12.939,-41.687
0.341,0.252,-0.292,1.038,-0.061,-45.349
0.324,0.164,-0.285,-0.732,-29.541,-38.147
0.314,0.109,-0.202,-9.460,-42.725,-27.771
0.297,0.162,-0.186,-24.719,-59.021,-11.841
0.323,0.315,-0.248,-25.574,-69.580,-8.179
0.351,0.393,-0.214,-25.330,-110.474,-13.306
0.278,0.267,0.023,-20.508,-129.150,-18.555
0.228,0.135,0.081,-20.630,-138.733,-9.766
0.146,0.014,0.134,-31.189,-136.841,3.357
0.130,0.078,0.150,-57.556,-135.376,33.630
0.196,0.341,0.208,-57.312,-145.630,41.626
0.205,0.399,0.286,-41.016,-186.951,33.020
0.190,0.332,0.457,-36.011,-201.538,26.611
0.150,0.213,0.494,-32.471,-209.778,22.949
0.073,0.074,0.631,-43.640,-214.172,26.855
0.080,0.165,0.871,-80.383,-233.276,42.480
0.208,0.450,1.351,-82.886,-233.154,46.692
0.299,0.512,1.382,-53.040,-208.618,38.696
0.331,0.484,1.436,-45.776,-200.745,28.137
0.262,0.354,1.557,-41.443,-189.148,12.024
0.229,0.136,1.804,-42.114,-179.687,19.287
0.341,0.302,1.913,-48.218,-162.659,48.645
0.548,0.686,2.102,-40.833,-153.564,51.331
0.582,0.718,2.064,-13.733,-119.446,24.780
0.510,0.498,1.890,-7.935,-101.807,9.094
0.461,0.391,1.830,-4.395,-77.759,3.906
0.431,0.414,1.672,1.038,-71.289,7.507
0.423,0.435,1.558,15.808,-68.542,8.240
0.421,0.434,1.490,12.695,-66.101,7.568
0.435,0.453,1.544,-1.831,-46.997,7.202
0.495,0.565,1.671,-2.625,-35.095,6.226
0.507,0.563,1.708,9.155,-17.090,-1.038
0.506,0.513,1.795,8.545,-9.521,-1.343
0.532,0.565,1.847,0.549,11.902,1.526
0.612,0.750,1.943,2.258,24.353,-1.587
0.640,0.802,1.969,15.076,47.485,-15.625
0.611,0.804,1.948,18.372,61.279,-22.400
0.584,0.799,1.866,17.700,96.924,-30.334
0.577,0.828,1.693,14.099,110.901,-34.241
0.559,0.828,1.647,14.160,126.465,-49.744
0.440,0.726,1.441,18.127,135.071,-58.350
0.393,0.665,1.318,18.005,147.156,-71.045
0.352,0.615,1.121,20.264,145.508,-77.576
0.339,0.550,1.121,19.836,130.615,-90.332
0.169,0.369,1.117,16.907,133.362,-90.515
0.102,0.281,0.948,17.700,155.334,-80.688
0.107,0.256,0.722,7.141,156.189,-73.669
0.124,0.300,0.751,-9.277,145.935,-70.374
0.015,0.222,0.623,-1.404,146.606,-73.425
-0.031,0.137,0.371,3.418,152.771,-66.711
0.071,0.222,0.025,-14.526,144.226,-60.364
0.115,0.260,0.110,-36.621,102.783,-67.078
-0.004,0.058,0.329,-23.071,85.876,-69.885
-0.062,-0.033,0.231,3.357,81.665,-51.270
-0.019,-0.027,-0.077,-1.526,79.773,-36.255
0.039,0.040,-0.077,-25.208,52.002,-15.808
0.106,0.152,-0.050,-26.733,39.551,-12.512
0.122,0.165,-0.107,-24.292,32.959,-12.329
0.164,0.174,-0.142,-20.203,15.076,-14.465
0.167,0.116,-0.101,-14.587,-0.061,-16.418
0.154,0.021,-0.057,-14.221,-22.949,-11.963
0.214,0.005,0.066,-25.024,-26.611,-2.319
0.271,0.045,0.105,-28.259,-26.978,12.268
0.359,0.062,0.061,-26.062,-31.311,16.052
0.380,0.095,0.091,-33.020,-55.786,23.010
0.352,0.174,0.189,-30.945,-67.261,22.461
0.306,0.166,0.202,-14.893,-84.534,16.418
0.153,0.079,0.209,-8.301,-93.140,15.137
0.070,0.011,0.193,-0.427,-106.506,19.287
-0.134,-0.154,0.181,2.014,-112.366,25.879
-0.213,-0.182,0.109,7.629,-122.620,47.119
-0.284,-0.132,-0.159,5.066,-131.531,56.274
-0.275,-0.097,-0.240,-20.630,-164.856,64.636
-0.358,-0.050,-0.063,-41.748,-186.035,67.688
-0.387,0.053,0.112,-64.758,-232.361,82.886
-0.372,0.370,0.792,-65.979,-264.648,88.684
-0.333,0.523,1.233,-58.533,-289.734,90.210
-0.276,0.518,1.716,-15.198,-277.039,84.595
-0.197,0.524,1.839,-2.930,-252.197,88.806
-0.057,0.699,2.052,-14.832,-218.018,103.943
0.281,1.197,2.504,-6.042,-199.768,96.436
0.359,1.196,2.486,31.311,-137.695,50.171
0.387,0.958,2.503,31.250,-111.084,33.325
0.380,0.870,2.551,62.866,-62.622,14.893
0.349,0.566,2.251,95.398,-44.922,7.080
0.313,0.415,2.090,122.986,-37.964,-1.038
0.443,0.994,2.027,-40.710,-72.998,32.471
0.465,1.007,2.244,-66.406,-12.756,9.399
0.480,1.038,2.763,-67.749,8.423,2.808
0.474,1.092,3.023,-57.373,56.580,-14.221
0.340,1.003,3.119,-48.889,89.478,-28.015
0.193,0.783,2.888,-40.466,144.043,-49.438
-0.054,0.363,2.356,-50.598,158.813,-49.622
-0.124,0.287,2.145,-84.534,182.434,-39.490
-0.236,0.232,1.729,-96.191,194.702,-36.194
-0.277,0.204,1.548,-106.323,210.815,-34.851
-0.287,0.273,1.286,-112.610,216.431,-35.645
-0.282,0.328,1.188,-122.253,221.191,-46.021
-0.294,0.215,0.975,-119.568,218.140,-54.016
-0.310,0.107,0.859,-115.295,205.139,-65.186
-0.321,-0.025,0.664,-116.699,198.059,-66.467
-0.297,-0.074,0.622,-114.868,187.439,-64.209
-0.275,-0.134,0.497,-110.779,184.937,-62.622
-0.258,-0.108,0.377,-108.765,180.969,-60.242
-0.205,-0.002,0.251,-113.586,160.828,-54.016
-0.185,0.008,0.254,-111.328,148.437,-53.467
-0.134,0.039,0.247,-94.421,131.409,-57.861
-0.125,0.032,0.244,-85.205,126.343,-61.462
-0.115,-0.005,0.265,-75.012,120.422,-59.753
-0.052,-0.001,0.295,-73.608,120.483,-51.147
-0.006,0.086,0.245,-74.402,126.465,-34.668
0.029,0.207,0.015,-73.730,125.977,-31.555
-0.020,0.246,-0.422,-62.927,117.065,-28.320
-0.022,0.276,-0.596,-59.998,104.492,-24.719
-0.023,0.261,-0.738,-46.753,53.650,-21.729
-0.042,0.178,-0.808,-31.433,24.536,-25.330
-0.070,-0.049,-0.828,-5.615,-35.645,-24.597
-0.084,-0.141,-0.816,4.395,-61.646,-18.433
-0.130,-0.129,-0.754,14.954,-106.934,3.418
-0.140,-0.060,-0.629,11.414,-129.822,15.747
-0.118,0.057,-0.252,2.808,-168.884,33.447
-0.110,0.089,-0.090,4.883,-182.678,38.757
-0.085,0.140,0.097,20.142,-203.613,46.082
-0.084,0.163,0.163,27.771,-213.989,49.011
-0.077,0.219,0.265,40.222,-236.450,54.199
-0.036,0.376,0.581,47.913,-245.666,52.185
-0.021,0.387,0.722,67.444,-253.906,34.912
-0.047,0.209,0.928,75.317,-256.592,27.527
-0.033,0.194,1.098,65.674,-263.306,35.339
0.123,0.527,1.618,57.556,-260.620,39.368
0.182,0.651,1.769,58.899,-229.187,19.043
0.196,0.547,1.805,63.843,-212.280,5.676
0.214,0.480,1.857,65.613,-192.139,1.587
0.299,0.581,1.980,59.753,-179.565,4.944
0.343,0.675,1.991,50.049,-163.269,7.385
0.431,0.880,2.079,21.912,-126.892,3.113
0.465,0.890,2.191,14.587,-110.596,-4.944
0.485,0.843,2.245,24.719,-77.087,-18.860
0.524,0.836,2.184,28.992,-62.866,-19.653
0.539,0.904,2.160,24.048,-39.246,-19.409
0.582,1.054,2.286,16.235,-26.184,-22.705
0.591,1.065,2.349,6.104,12.390,-36.438
0.538,0.970,2.227,7.202,33.264,-42.297
0.511,0.957,2.122,5.066,65.186,-47.852
0.464,1.010,1.975,-3.784,78.918,-51.697
0.428,0.980,1.954,-15.808,103.149,-64.697
0.337,0.884,1.914,-11.963,113.037,-71.716
0.295,0.848,1.865,-5.127,123.413,-79.163
0.193,0.658,1.557,3.479,148.254,-93.384
0.140,0.561,1.369,-0.183,158.447,-95.947
0.093,0.500,1.188,-20.691,170.349,-94.543
0.042,0.371,0.946,-32.532,170.227,-93.872
0.042,0.302,0.935,-47.424,161.926,-92.957
0.046,0.209,0.861,-46.875,160.278,-93.689
0.035,0.156,0.686,-39.917,158.813,-92.407
0.014,0.066,0.283,-43.335,153.625,-87.341
0.021,0.063,0.160,-59.021,133.179,-76.477
0.036,0.023,0.166,-59.570,118.835,-75.500
0.036,-0.036,0.221,-42.786,94.055,-74.219
0.094,-0.126,0.287,-35.095,86.670,-69.885
0.136,-0.112,0.241,-37.964,83.130,-51.697
0.246,0.028,0.133,-45.593,79.590,-42.664
0.284,0.055,0.114,-47.729,66.406,-31.860
0.330,0.102,-0.004,-43.579,58.594,-26.367
0.349,0.160,-0.022,-40.222,46.875,-21.484
0.347,0.188,-0.041,-26.611,18.311,-21.179
0.322,0.147,-0.076,-17.883,5.188,-24.292
0.290,0.098,-0.100,-12.634,-21.179,-26.062
0.213,0.001,-0.108,-14.587,-31.738,-23.071
0.165,-0.061,-0.149,-15.564,-45.715,-11.780
0.065,-0.210,-0.292,-13.977,-54.504,-2.747
-0.013,-0.165,-0.496,-13.367,-76.050,18.555
-0.054,-0.117,-0.526,-19.226,-88.867,27.344
-0.175,-0.117,-0.513,-25.146,-119.080,41.199
-0.249,-0.069,-0.509,-22.888,-136.414,48.584
-0.429,0.009,-0.376,-18.677,-177.917,58.228
-0.542,-0.023,-0.265,-14.282,-199.036,61.218
-0.656,-0.094,-0.120,11.108,-245.239,74.524
-0.807,-0.129,0.266,27.954,-271.301,86.670
-0.827,-0.024,0.561,38.025,-313.538,114.136
-0.667,0.504,1.275,27.649,-317.688,122.681
-0.522,0.824,1.675,8.423,-297.852,104.614
-0.220,1.120,2.308,11.597,-277.527,78.674
-0.139,0.992,2.449,18.921,-223.694,32.532
-0.015,0.812,2.601,10.498,-197.205,27.771
0.069,0.850,2.693,8.301,-150.574,26.855
0.172,0.793,2.654,23.437,-128.052,19.653
0.182,0.720,2.499,38.818,-106.384,11.475
0.169,0.610,2.102,48.706,-67.444,4.395
0.185,0.626,1.934,45.166,-52.307,5.249
0.202,0.643,1.632,38.940,-29.175,4.517
0.200,0.644,1.547,35.461,-21.729,2.747
0.175,0.649,1.412,33.020,-7.751,-3.601
0.148,0.621,1.286,35.400,-0.610,-8.057
0.119,0.578,1.162,30.029,3.723,-14.038
0.096,0.512,1.135,26.245,4.822,-17.517
0.056,0.423,1.061,21.729,11.963,-21.729
-0.013,0.309,0.911,18.677,11.841,-20.752
-0.044,0.266,0.900,18.799,6.226,-18.921
-0.121,0.154,0.902,19.958,5.005,-16.418
-0.134,0.157,0.893,10.559,5.249,-4.395
-0.106,0.293,0.941,1.343,4.272,0.244
-0.105,0.319,0.967,-1.160,4.517,0.732
-0.112,0.309,0.925,2.808,4.822,0.366
-0.103,0.337,0.895,3.540,2.075,0.610
0.031,1.196,1.990,-11.108,-35.828,65.796
0.056,1.276,2.092,8.362,-15.747,25.391
0.088,1.242,2.450,1.343,-5.066,3.113
0.065,1.176,2.558,-49.805,55.237,-32.837
0.038,1.195,2.544,-73.242,93.933,-47.668
0.006,1.249,2.542,-100.647,175.110,-93.994
-0.140,1.118,2.102,-106.140,218.811,-128.845
-0.222,0.971,1.976,-104.736,262.634,-168.518
-0.429,0.472,1.807,-106.934,295.227,-172.852
-0.469,0.179,1.513,-111.023,333.679,-182.068
-0.455,-0.045,1.047,-110.962,326.599,-172.729
-0.419,-0.044,0.943,-123.779,319.519,-139.771
-0.297,-0.015,0.706,-130.615,322.021,-128.662
-0.258,0.000,0.606,-107.056,316.772,-111.450
-0.254,-0.120,0.482,-98.083,312.012,-100.098
-0.232,-0.200,0.358,-124.573,301.880,-75.500
-0.097,-0.284,0.004,-122.864,276.733,-67.078
0.011,-0.202,-0.036,-106.018,233.643,-58.228
0.230,0.182,0.122,-83.496,140.259,-40.771
0.327,0.187,0.222,-79.102,113.831,-39.978
0.433,0.354,0.261,-72.815,107.483,-22.827
0.439,0.468,0.088,-83.374,114.868,-15.442
0.435,0.514,-0.105,-106.750,102.234,-15.930
0.484,0.630,-0.227,-113.220,81.421,-18.555
0.523,0.670,-0.183,-98.694,44.434,-37.781
0.480,0.403,-0.307,-79.895,28.625,-52.002
0.423,0.256,-0.449,-61.340,-15.991,-58.533
0.365,0.290,-0.431,-64.514,-39.978,-49.316
0.385,0.408,-0.303,-55.847,-73.975,-39.429
0.332,0.366,-0.223,-26.794,-90.576,-47.241
0.248,0.184,-0.291,27.222,-138.306,-59.448
0.052,-0.087,-0.344,29.602,-167.480,-51.147
-0.053,-0.141,-0.330,8.301,-193.604,-14.648
-0.270,-0.374,-0.354,-14.771,-179.626,10.742
-0.324,-0.371,-0.487,-34.851,-142.639,68.298
-0.423,0.008,-0.789,-35.889,-152.344,85.632
-0.450,0.173,-0.680,-45.471,-224.121,99.915
-0.458,0.321,-0.237,-34.851,-253.601,101.929
-0.490,0.285,-0.189,12.939,-267.761,92.773
-0.651,-0.023,-0.303,35.095,-281.860,93.506
-0.691,-0.084,-0.090,54.565,-356.873,120.544
-0.581,0.460,0.937,56.152,-387.451,133.118
-0.513,0.761,1.371,68.970,-397.705,130.554
-0.447,0.734,1.710,100.403,-359.131,82.764
-0.372,0.583,1.923,89.355,-332.092,60.486
-0.265,0.549,2.135,45.593,-282.593,48.157
-0.060,0.895,2.433,25.574,-257.019,44.678
0.014,1.025,2.556,19.592,-204.712,22.888
0.081,0.793,2.398,31.311,-171.814,11.230
0.106,0.663,2.165,58.289,-125.610,5.981
0.133,0.682,1.645,62.134,-117.249,9.399
0.148,0.748,1.644,37.354,-108.704,13.916
0.158,0.818,1.756,29.602,-93.933,13.855
0.142,0.825,1.699,24.780,-50.476,7.751
0.105,0.744,1.591,22.522,-36.255,3.357
0.097,0.729,1.605,18.860,-25.391,1.892
0.098,0.866,1.714,18.677,-20.386,2.625
0.093,0.925,1.749,18.433,-11.780,0.488
0.056,0.929,1.808,15.869,14.832,-10.193
0.036,0.947,1.836,18.127,27.832,-14.709
0.015,1.004,1.821,22.888,52.246,-23.804
0.007,1.147,1.897,17.273,63.721,-31.860
-0.006,1.137,1.914,10.376,94.604,-56.580
-0.038,0.999,1.790,11.047,108.215,-67.200
-0.061,0.886,1.727,8.606,128.723,-78.735
-0.080,0.779,1.747,4.395,140.198,-80.750
-0.117,0.714,1.698,7.812,177.551,-90.820
-0.138,0.640,1.577,13.550,203.369,-96.558
-0.136,0.643,1.452,12.146,246.338,-103.027
-0.151,0.555,1.167,5.371,263.184,-111.328
-0.156,0.385,1.015,-20.691,290.466,-123.779
-0.127,0.068,0.683,-39.001,300.476,-122.620
-0.088,-0.046,0.421,-45.166,287.598,-108.582
0.013,0.048,0.078,-48.828,257.874,-95.215
0.042,0.154,0.064,-67.261,199.219,-77.820
0.076,0.202,0.078,-62.195,175.232,-78.369
0.078,0.130,0.031,-40.894,143.616,-78.979
0.139,-0.041,-0.053,-32.898,126.770,-74.158
0.191,-0.054,-0.076,-31.067,81.177,-58.228
0.272,0.101,-0.043,-37.781,61.951,-49.683
0.291,0.165,-0.077,-44.312,47.607,-39.185
0.294,0.245,-0.243,-48.340,42.358,-38.635
0.308,0.224,-0.233,-51.147,15.930,-47.180
0.338,0.068,-0.109,-36.560,-4.333,-43.030
0.341,0.081,-0.027,-8.423,-46.387,-20.752
0.327,0.213,0.093,-6.653,-56.396,-15.137
0.308,0.217,0.119,-17.639,-57.556,-13.000
0.254,0.038,0.065,-19.897,-60.425,-11.108
0.222,-0.066,0.022,-17.639,-86.304,8.423
0.154,-0.092,-0.074,-17.944,-99.243,23.376
0.101,-0.077,-0.130,-26.917,-110.779,48.523
-0.046,0.000,-0.362,-33.752,-116.943,59.631
-0.124,0.050,-0.457,-44.189,-152.283,76.416
-0.294,0.001,-0.516,-42.786,-177.246,80.566
-0.403,-0.093,-0.543,-31.616,-225.952,96.130
-0.546,-0.093,-0.380,-29.724,-250.305,111.267
-0.593,0.030,-0.188,-30.396,-278.564,134.216
-0.722,0.299,0.132,-21.362,-288.574,133.301
-0.867,0.295,0.335,30.701,-336.182,119.385
-0.915,0.462,1.563,43.518,-363.953,123.169
-0.694,0.804,2.504,28.564,-346.191,132.385
-0.233,1.505,3.392,30.762,-290.588,112.488
-0.086,1.544,3.357,46.509,-185.730,40.771
0.062,1.139,2.816,40.283,-152.344,16.602
0.092,0.941,2.589,13.367,-115.479,6.653
0.107,0.653,2.130,13.184,-96.741,8.728
0.101,0.599,1.849,33.752,-64.697,13.489
0.086,0.646,1.449,37.109,-57.312,14.832
0.076,0.693,1.344,17.578,-41.321,13.550
0.046,0.745,1.148,7.080,-32.654,10.498
0.014,0.730,1.039,1.465,-26.672,2.625
-0.054,0.630,0.885,3.723,-27.039,0.183
-0.087,0.583,0.803,9.460,-28.381,-3.296
-0.165,0.486,0.663,9.216,-32.104,-5.859
-0.209,0.437,0.660,2.625,-44.434,-8.423
-0.273,0.421,0.882,3.601,-49.438,-8.057
-0.293,0.418,1.016,23.132,-46.326,-9.399
-0.306,0.409,1.128,29.480,-38.635,-10.254
-0.295,0.418,1.118,14.526,-13.000,-9.399
0.289,1.685,2.013,15.259,-88.562,47.302
0.329,2.084,2.329,36.438,-15.930,-6.897
0.334,1.812,2.876,23.071,17.090,-54.565
0.313,1.277,3.251,-90.271,71.838,-98.511
0.225,1.005,3.068,-126.526,113.525,-81.238
0.143,1.172,2.602,-101.685,175.537,-60.486
-0.020,1.215,1.912,-83.069,189.087,-73.608
-0.123,1.063,1.644,-84.717,207.275,-91.797
-0.318,0.724,1.199,-134.460,247.864,-111.389
-0.368,0.576,1.010,-149.536,250.061,-111.267
-0.431,0.318,0.703,-134.216,218.018,-111.694
-0.441,0.186,0.587,-120.361,200.806,-117.065
-0.386,-0.073,0.299,-99.426,183.594,-131.226
-0.330,-0.131,0.182,-87.280,175.110,-132.751
-0.268,-0.113,0.078,-60.913,151.001,-117.920
-0.164,-0.008,-0.046,-49.683,135.986,-105.957
-0.141,-0.015,0.003,-37.598,103.027,-82.458
-0.058,-0.030,0.152,-35.339,87.952,-70.374
0.015,0.027,0.172,-27.405,52.185,-48.096
0.104,0.223,0.125,-20.813,31.128,-39.734
0.114,0.299,0.098,-15.930,-4.883,-33.325
0.141,0.343,0.140,-19.592,-13.977,-32.776
0.145,0.306,0.171,-35.095,-5.798,-31.738
0.139,0.213,0.076,-43.335,9.460,-31.311
0.134,0.178,-0.032,-45.227,26.489,-29.175
0.130,0.116,-0.272,-38.635,16.113,-25.879
0.122,0.121,-0.350,-22.766,-32.288,-10.437
0.083,0.253,-0.399,-15.076,-55.420,-2.014
0.019,0.209,-0.467,-2.869,-84.717,3.052
-0.021,0.104,-0.479,-4.456,-96.313,4.944
-0.046,0.046,-0.551,-7.751,-117.615,24.841
-0.036,0.067,-0.551,-5.371,-129.822,34.729
-0.052,0.074,-0.497,-0.488,-147.278,44.678
-0.169,0.106,-0.370,4.272,-151.489,48.096
-0.310,0.096,0.016,2.380,-168.762,52.856
-0.328,0.141,0.297,-6.592,-173.950,57.678
-0.296,0.238,0.442,6.531,-164.429,70.496
-0.204,0.375,0.528,33.936,-178.040,74.097
-0.173,0.411,0.713,66.895,-227.234,76.416
-0.112,0.594,1.266,59.631,-231.812,74.707
-0.063,0.728,1.484,25.269,-194.275,57.190
0.049,0.900,1.619,22.766,-174.683,42.847
0.095,0.909,1.584,42.297,-156.250,15.808
0.095,0.923,1.667,49.927,-153.076,6.897
0.113,0.953,1.794,58.167,-139.771,-1.709
0.179,1.002,1.894,54.443,-125.427,-3.967
0.190,0.994,1.856,39.978,-99.609,-8.728
0.172,0.949,1.696,39.856,-89.844,-12.207
0.163,0.885,1.608,58.289,-75.806,-21.790
0.133,0.727,1.491,66.589,-70.679,-24.658
0.116,0.680,1.454,62.988,-60.791,-23.010
0.127,0.844,1.640,48.035,-57.312,-19.165
0.148,0.995,1.794,15.869,-34.912,-21.729
0.173,1.125,1.948,5.615,-15.015,-28.015
0.183,1.182,1.956,1.282,26.001,-39.978
0.179,1.282,1.831,4.700,41.077,-47.180
0.172,1.319,1.841,-6.653,56.030,-62.744
0.130,1.211,1.927,-22.400,67.322,-72.815
0.108,1.062,1.924,-60.669,106.934,-90.088
0.078,0.876,1.618,-67.261,127.869,-92.896
0.067,0.874,1.442,-68.909,145.081,-94.727
0.054,0.792,1.306,-76.721,147.095,-96.985
0.041,0.713,1.219,-91.248,168.274,-104.187
0.044,0.516,0.881,-93.201,176.453,-103.943
0.065,0.531,0.805,-86.853,166.504,-93.201
0.100,0.661,0.755,-75.256,157.104,-92.407
0.097,0.568,0.628,-48.584,139.526,-100.647
0.096,0.278,0.372,-43.640,126.953,-98.572
0.108,0.231,0.315,-46.936,103.088,-84.656
0.084,0.158,0.172,-47.974,99.060,-80.261
0.073,0.055,0.054,-42.419,88.684,-70.801
0.083,-0.049,-0.106,-36.560,74.280,-61.279
0.091,-0.044,-0.143,-30.640,41.565,-37.292
0.109,0.035,-0.161,-32.715,28.992,-27.771
0.116,0.065,-0.195,-32.959,7.324,-19.470
0.111,0.112,-0.158,-29.480,-4.456,-19.043
0.099,0.113,-0.124,-7.141,-26.672,-19.958
0.077,0.095,-0.161,3.174,-36.804,-18.616
0.067,0.093,-0.197,9.399,-56.152,-11.475
0.037,0.022,-0.275,12.634,-66.223,-7.263
0.016,-0.041,-0.301,21.973,-90.820,4.944
-0.032,-0.135,-0.334,27.466,-103.333,13.306
-0.065,-0.146,-0.376,36.316,-128.723,30.945
-0.105,-0.059,-0.358,34.912,-145.752,38.818
-0.121,-0.016,-0.289,24.963,-174.499,45.349
-0.183,-0.054,-0.295,24.658,-183.105,46.448
-0.252,-0.113,-0.357,34.668,-205.017,53.589
-0.444,-0.291,-0.299,43.945,-226.257,62.134
-0.533,-0.275,-0.102,55.725,-277.649,87.891
-0.705,0.031,0.472,53.406,-292.603,96.680
-0.782,0.222,0.850,49.622,-299.683,100.769
-0.800,0.774,2.015,51.941,-300.598,102.234
-0.704,1.122,2.699,49.866,-270.874,95.032
-0.404,1.670,3.246,43.091,-223.328,78.491
-0.244,1.759,3.144,32.715,-125.305,24.963
-0.055,1.400,2.767,43.884,-95.459,1.526
-0.019,1.162,2.485,83.984,-70.313,-15.503
0.007,0.873,2.060,91.675,-66.895,-15.564
-0.002,0.757,1.918,75.378,-43.396,-14.404
-0.041,0.624,1.573,56.946,-26.123,-11.292
-0.056,0.642,1.402,15.564,-2.197,-2.258
-0.094,0.712,1.171,5.432,3.174,-0.427
-0.113,0.692,1.039,10.132,4.944,-5.493
-0.162,0.533,0.839,13.550,0.000,-8.972
-0.183,0.440,0.775,15.381,-5.127,-10.803
-0.185,0.335,0.689,16.479,-10.498,-10.132
-0.196,0.299,0.661,17.273,-12.207,-9.766
-0.243,0.217,0.657,18.982,-17.090,-6.042
-0.273,0.203,0.688,16.846,-20.874,-0.488
-0.294,0.226,0.762,0.854,-27.344,9.766
-0.303,0.355,0.923,-4.395,-26.733,11.597
-0.288,0.395,0.946,-7.385,-19.592,8.301
-0.269,0.347,0.944,-7.568,-14.709,5.798
-0.270,0.317,0.908,-2.930,-9.949,6.531
-0.254,0.369,0.917,-2.380,-13.367,8.606
-0.249,0.402,0.957,-0.366,-15.137,10.132
-0.261,0.425,0.963,2.014,-11.536,9.338
-0.267,0.430,0.965,2.808,-7.568,6.714
-0.272,0.443,0.978,2.930,-5.066,5.493
-0.023,1.188,1.714,-30.701,-37.292,50.415
-0.032,1.345,1.918,-25.879,3.540,28.687
-0.087,1.379,2.069,-14.099,33.142,9.583
-0.118,1.290,1.987,-11.963,86.853,-22.949
-0.110,1.141,1.833,-25.574,99.792,-32.654
-0.106,1.116,1.845,-53.711,107.910,-40.955
-0.141,1.120,1.836,-59.082,113.770,-43.274
-0.215,1.157,1.765,-65.613,131.348,-55.237
-0.258,1.128,1.726,-76.355,144.897,-67.505
-0.334,0.908,1.607,-97.290,178.589,-96.985
-0.367,0.773,1.470,-94.482,190.857,-107.666
-0.392,0.634,1.298,-72.266,192.322,-124.023
-0.424,0.361,0.993,-70.251,185.547,-129.089
-0.420,0.242,0.893,-87.952,177.307,-130.737
-0.351,0.157,0.865,-100.098,176.758,-128.418
-0.320,0.189,0.868,-116.272,191.284,-122.742
-0.325,0.168,0.627,-118.835,202.148,-123.657
-0.325,0.077,0.418,-106.079,196.838,-125.000
-0.245,-0.020,0.142,-93.628,176.147,-117.554
-0.177,0.021,-0.012,-62.561,121.216,-93.384
-0.148,-0.021,-0.082,-52.246,70.679,-71.411
-0.088,-0.023,-0.117,-62.439,57.678,-58.167
-0.076,-0.013,-0.173,-49.683,47.791,-44.373
-0.088,-0.143,-0.344,-32.104,36.926,-40.771
-0.093,-0.217,-0.462,-10.864,3.113,-22.827
-0.089,-0.216,-0.592,-8.179,-19.165,-8.850
-0.084,-0.137,-0.604,-9.705,-59.570,11.902
-0.058,0.071,-0.512,-12.390,-73.059,16.357
-0.050,0.121,-0.491,-1.526,-80.444,18.860
-0.084,0.095,-0.622,7.141,-84.656,18.799
-0.098,0.091,-0.644,5.859,-117.249,21.912
-0.088,0.205,-0.416,4.028,-140.076,26.367
-0.092,0.284,-0.271,9.888,-160.461,29.907
-0.111,0.359,0.083,33.752,-191.040,24.109
-0.103,0.362,0.256,44.617,-198.303,18.372
-0.093,0.372,0.366,54.687,-196.167,16.602
-0.056,0.427,0.575,50.110,-193.481,18.799
-0.037,0.481,0.743,48.401,-188.416,16.602
-0.022,0.434,1.032,64.148,-187.683,11.658
-0.019,0.359,1.140,83.374,-192.566,12.268
0.025,0.444,1.360,66.895,-190.796,19.043
0.059,0.634,1.451,19.409,-173.096,26.978
0.115,0.930,1.676,13.062,-165.649,22.644
0.129,0.945,1.802,32.837,-148.499,8.179
0.167,0.909,1.926,43.579,-137.512,4.578
0.186,0.927,1.958,43.579,-110.718,2.808
0.229,1.016,2.043,36.011,-95.337,2.014
0.251,1.076,2.087,29.419,-80.200,0.488
0.264,1.164,2.129,24.292,-50.171,-8.179
0.264,1.128,2.121,23.804,-34.119,-15.503
0.259,1.072,2.076,17.273,-0.916,-25.024
0.246,1.125,1.978,9.705,14.221,-26.184
0.240,1.191,1.950,2.991,45.227,-35.583
0.207,1.145,1.764,1.892,60.059,-43.457
0.186,1.128,1.694,-6.470,76.660,-55.054
0.136,1.179,1.677,-6.470,84.412,-62.012
0.097,1.149,1.631,3.540,108.459,-79.346
0.017,0.930,1.403,4.578,120.605,-85.693
-0.007,0.829,1.309,-11.047,135.437,-92.529
-0.003,0.762,1.217,-18.982,138.672,-95.825
-0.004,0.730,1.098,-20.996,147.949,-102.783
-0.009,0.545,0.772,-21.484,149.902,-104.614
0.004,0.413,0.651,-31.738,144.104,-101.929
0.041,0.290,0.524,-42.053,139.404,-97.107
0.066,0.269,0.481,-50.171,127.808,-89.294
0.121,0.152,0.342,-46.875,120.117,-87.036
0.152,0.070,0.247,-38.513,103.333,-81.299
0.205,-0.070,0.135,-35.583,94.360,-73.303
0.232,-0.026,0.189,-27.832,70.679,-49.988
0.263,0.142,0.358,-21.606,62.317,-44.373
0.270,0.110,0.354,-21.851,61.096,-41.016
0.307,0.096,0.312,-29.236,58.594,-35.767
0.322,0.157,0.279,-38.513,48.401,-26.489
0.341,0.225,0.203,-40.710,41.748,-25.696
0.337,0.193,0.162,-39.490,27.832,-23.804
0.330,0.163,0.022,-37.231,21.545,-19.470
0.322,0.171,-0.029,-31.616,6.165,-12.634
0.274,0.157,-0.138,-26.245,-0.671,-11.353
0.247,0.149,-0.205,-16.235,-18.433,-6.775
0.193,0.108,-0.244,-13.000,-29.785,-3.784
0.165,0.046,-0.264,-7.446,-48.767,3.601
0.101,-0.057,-0.330,-6.958,-58.411,9.888
0.054,-0.072,-0.364,-4.639,-79.651,25.818
-0.102,-0.082,-0.570,-0.916,-91.980,33.020
-0.197,-0.127,-0.614,6.287,-135.071,43.762
-0.397,-0.314,-0.459,16.113,-159.424,50.781
-0.491,-0.366,-0.377,36.499,-190.979,72.754
-0.607,-0.319,-0.241,36.560,-198.486,83.374
-0.642,-0.258,-0.159,20.020,-212.097,102.661
-0.724,0.043,0.118,10.071,-222.961,111.816
-0.787,0.231,0.349,26.306,-257.263,113.953
-0.852,0.476,1.058,62.256,-283.813,104.492
-0.792,0.634,1.610,129.211,-342.407,87.280
-0.510,1.176,2.874,124.878,-348.206,86.548
-0.370,1.452,3.256,93.933,-324.219,83.191
-0.119,1.582,3.446,32.532,-220.703,43.823
-0.044,1.333,3.214,42.786,-167.114,16.418
-0.029,0.946,2.799,102.661,-90.027,-14.099
-0.019,0.300,2.166,110.840,-75.806,-11.230
-0.019,0.228,1.971,78.857,-55.237,11.841
-0.025,0.490,1.684,50.964,-46.387,23.132
-0.021,0.676,1.673,10.681,-29.968,27.710
-0.033,0.913,1.534,7.446,-15.320,19.348
-0.047,0.907,1.394,15.198,2.747,-3.235
-0.067,0.765,1.188,19.043,1.465,-11.414
-0.078,0.683,1.106,21.362,-3.967,-21.362
-0.108,0.550,1.024,16.907,-4.700,-22.705
-0.128,0.500,1.034,9.644,-1.343,-22.705
-0.175,0.401,1.017,10.803,1.038,-22.461
-0.196,0.357,1.008,13.977,0.427,-21.484
-0.228,0.319,1.030,12.878,-2.319,-17.944
-0.234,0.305,1.048,6.897,0.488,-16.052
-0.233,0.289,1.022,0.244,11.902,-11.963
-0.213,0.305,0.932,-2.930,15.015,-9.827
-0.207,0.313,0.901,-6.653,18.616,-7.568
-0.209,0.308,0.819,-3.296,18.616,-6.226
-0.206,0.332,0.795,-5.249,9.216,-3.845
-0.194,0.368,0.876,-10.803,5.127,-4.456
-0.193,0.356,0.885,-3.296,7.080,-6.836
0.016,1.161,1.598,-7.141,9.460,-2.075
0.013,1.110,1.704,-22.217,28.503,-16.663
0.025,1.090,1.865,-34.790,43.823,-19.836
-0.005,1.031,1.974,-43.152,75.562,-31.067
-0.029,0.969,2.005,-39.246,102.661,-43.274
-0.092,0.902,2.003,-41.870,117.065,-46.875
-0.122,0.912,1.947,-48.645,142.639,-53.467
-0.157,0.897,1.798,-50.659,149.902,-58.105
-0.203,0.753,1.666,-61.218,163.269,-69.214
-0.234,0.641,1.552,-70.496,175.110,-75.867
-0.268,0.454,1.371,-85.693,188.843,-82.397
-0.267,0.423,1.279,-90.088,194.641,-81.055
-0.277,0.299,1.029,-87.952,199.036,-82.458
-0.263,0.245,0.842,-94.971,198.547,-73.547
-0.203,0.252,0.549,-109.253,187.378,-64.941
-0.182,0.285,0.525,-120.483,151.672,-60.364
-0.191,0.270,0.474,-107.056,139.099,-67.627
-0.194,0.214,0.406,-69.031,125.427,-87.891
-0.156,0.080,0.271,-54.749,118.286,-93.079
-0.122,0.011,0.214,-41.321,101.807,-88.623
-0.068,-0.074,0.055,-41.443,94.421,-80.078
-0.025,0.007,-0.078,-55.481,80.017,-57.373
0.001,0.117,-0.108,-65.674,72.449,-48.035
0.036,0.345,-0.137,-76.599,60.425,-41.016
0.042,0.386,-0.167,-75.317,57.678,-43.091
0.044,0.323,-0.292,-55.664,50.049,-53.467
0.040,0.223,-0.370,-23.682,29.541,-55.603
0.019,0.030,-0.532,-14.404,17.761,-49.377
0.003,-0.005,-0.625,-11.841,-9.155,-28.442
-0.016,0.007,-0.691,-14.587,-29.724,-20.020
-0.019,0.021,-0.676,-13.794,-69.336,-10.071
-0.035,-0.005,-0.665,-8.850,-83.496,-6.775
-0.054,-0.056,-0.637,-0.488,-104.919,6.042
-0.094,-0.096,-0.592,2.441,-114.746,16.296
-0.116,-0.039,-0.549,6.287,-141.296,37.720
-0.130,0.178,-0.237,3.174,-158.875,45.898
-0.127,0.287,0.018,-6.165,-182.068,52.856
-0.111,0.455,0.507,0.000,-185.547,50.598
-0.095,0.509,0.696,43.762,-195.740,38.452
-0.033,0.592,0.981,71.045,-204.895,31.494
0.005,0.599,1.056,93.994,-221.130,21.545
0.091,0.618,1.413,75.623,-225.952,22.888
0.150,0.654,1.667,37.476,-209.778,22.888
0.264,0.622,1.964,36.072,-189.453,19.043
0.296,0.609,1.959,50.049,-146.484,16.052
0.342,0.700,1.754,54.687,-134.766,16.968
0.368,0.814,1.747,43.030,-134.949,15.869
0.394,0.981,1.895,35.278,-128.235,11.597
0.403,0.983,1.898,37.537,-94.971,-3.357
0.410,0.916,1.850,40.588,-79.529,-9.338
0.404,0.905,1.835,37.476,-56.885,-13.123
0.384,0.915,1.853,30.029,-45.898,-13.916
0.372,0.912,1.843,9.338,-20.752,-14.832
0.353,0.991,1.856,-1.526,-9.277,-14.709
0.344,1.025,1.866,-7.507,3.296,-16.846
0.329,1.020,1.836,-8.118,32.166,-27.100
0.298,1.020,1.773,-12.268,43.457,-30.090
0.252,1.117,1.690,-23.743,63.293,-33.997
0.232,1.161,1.641,-27.222,72.571,-39.307
0.215,1.165,1.610,-24.475,87.830,-58.716
0.188,0.969,1.491,-18.921,97.412,-68.665
0.174,0.841,1.394,-20.203,120.605,-76.477
0.133,0.732,1.308,-25.513,129.089,-78.064
0.110,0.708,1.301,-34.973,137.634,-80.444
0.101,0.619,1.157,-39.368,141.052,-80.139
0.100,0.567,1.030,-47.180,143.127,-78.125
0.115,0.537,0.711,-48.462,139.404,-76.355
0.121,0.533,0.565,-51.880,129.333,-77.942
0.108,0.404,0.340,-54.382,125.549,-80.811
0.112,0.313,0.229,-58.167,114.868,-82.458
0.153,0.190,0.141,-58.044,102.966,-80.811
0.177,0.168,0.126,-45.349,77.637,-74.219
0.216,0.211,0.086,-38.269,65.918,-70.740
0.233,0.225,0.152,-33.447,43.518,-69.641
0.252,0.122,0.230,-30.640,40.527,-70.984
0.256,0.058,0.149,-26.855,41.443,-70.129
0.285,0.023,0.041,-26.489,34.424,-61.523
0.291,0.009,0.031,-28.015,28.992,-57.251
0.297,-0.001,-0.009,-26.001,21.240,-45.349
0.320,0.058,-0.037,-27.039,13.794,-38.696
0.325,0.099,-0.035,-29.541,1.404,-32.959
0.319,0.110,-0.115,-26.672,-5.188,-31.494
0.315,0.090,-0.146,-21.790,-25.085,-22.888
0.285,0.088,-0.191,-20.142,-33.752,-15.991
0.259,0.107,-0.243,-9.827,-51.941,-5.798
0.211,0.095,-0.320,-4.456,-64.148,-4.395
0.187,0.067,-0.349,-1.953,-86.731,-2.808
0.122,0.023,-0.398,-4.456,-96.191,3.418
0.089,0.047,-0.393,-10.437,-120.239,20.874
-0.004,0.144,-0.195,-10.803,-134.399,24.902
-0.071,0.151,-0.060,10.742,-153.809,20.569
-0.205,-0.028,0.101,29.175,-161.621,17.456
-0.255,-0.132,0.187,36.621,-180.420,21.606
-0.313,-0.196,0.423,25.818,-186.890,30.334
-0.345,-0.135,0.555,13.977,-204.590,58.105
-0.374,0.179,0.881,17.822,-216.431,70.251
-0.370,0.319,1.005,40.161,-223.083,74.158
-0.330,0.458,1.050,48.096,-218.933,68.237
-0.313,0.488,1.150,47.241,-218.628,61.584
-0.281,0.593,1.583,32.410,-223.389,54.871
-0.252,0.602,1.758,32.593,-216.553,51.575
-0.215,0.607,1.863,53.162,-192.688,49.377
-0.161,0.648,1.941,69.458,-185.669,50.232
-0.156,0.637,1.943,78.674,-179.626,47.852
-0.141,0.676,2.065,64.636,-171.936,46.021
-0.100,0.739,2.126,29.968,-125.916,36.499
-0.012,0.750,2.077,18.738,-94.299,28.381
0.011,0.733,1.958,15.015,-53.162,20.203
0.016,0.694,1.710,18.433,-48.462,19.409
0.013,0.698,1.643,25.818,-48.950,17.334
0.012,0.716,1.583,26.123,-44.556,13.611
-0.002,0.687,1.541,24.719,-35.095,8.240
-0.040,0.613,1.370,24.170,-9.277,-2.075
-0.060,0.563,1.318,23.621,-2.563,-5.249
-0.086,0.500,1.290,22.888,-2.319,-5.554
-0.138,0.406,1.192,22.339,-1.343,-3.784
-0.145,0.400,1.140,17.212,3.845,-1.343
-0.141,0.416,1.065,14.282,5.737,-2.380
-0.144,0.407,1.066,9.460,8.484,-6.775
0.616,1.309,1.510,-40.894,24.475,-0.488
0.790,1.464,1.791,-66.833,34.729,-29.236
0.929,1.446,2.159,-73.303,34.790,-54.687
0.912,1.336,2.333,-65.308,42.908,-74.768
0.814,1.205,2.577,-72.754,65.491,-66.895
0.754,1.159,2.608,-94.727,131.042,-64.697
0.617,0.940,2.373,-84.473,161.804,-77.942
0.521,0.794,2.186,-63.843,165.283,-91.370
0.272,0.574,2.122,-73.181,162.476,-84.961
0.122,0.444,1.966,-107.727,212.708,-72.021
-0.107,0.116,1.372,-129.761,234.741,-64.453
-0.173,0.026,1.085,-176.086,238.464,-45.776
-0.259,-0.039,0.738,-181.885,231.873,-44.922
-0.250,-0.025,0.674,-149.353,217.346,-54.993
-0.267,-0.111,0.520,-128.723,207.764,-61.401
-0.298,-0.146,0.416,-122.620,185.913,-55.969
-0.211,-0.010,0.354,-131.897,173.340,-49.866
-0.141,0.081,0.380,-142.700,143.372,-67.871
-0.095,0.077,0.364,-135.498,128.235,-87.219
-0.053,0.015,0.294,-94.727,98.633,-102.905
0.026,-0.077,0.135,-78.613,82.764,-95.825
0.033,-0.045,0.016,-75.073,62.683,-63.599
0.026,0.276,-0.322,-87.463,56.335,-49.988
0.037,0.360,-0.424,-98.877,28.748,-51.208
-0.008,0.191,-0.554,-89.844,13.489,-56.519
-0.055,0.094,-0.679,-79.895,0.854,-56.763
-0.117,-0.029,-0.886,-65.613,-26.550,-42.908
-0.149,-0.058,-0.952,-60.730,-45.288,-33.264
-0.251,-0.071,-1.083,-46.875,-91.370,-11.841
-0.300,-0.064,-1.054,-44.006,-117.432,-1.221
-0.372,-0.094,-0.767,-47.974,-158.875,11.902
-0.400,-0.162,-0.607,-46.326,-174.194,11.597
-0.445,-0.279,-0.479,-26.428,-196.411,16.785
-0.536,-0.511,-0.257,-15.015,-201.050,29.724
-0.538,-0.489,-0.120,10.681,-211.548,74.585
-0.455,-0.156,0.127,34.851,-218.079,95.093
-0.400,0.115,0.184,69.763,-231.262,108.582
-0.247,0.662,0.545,69.641,-242.615,99.304
-0.102,0.843,0.890,76.416,-266.296,58.716
0.194,0.785,1.487,80.933,-266.724,34.302
0.279,0.654,1.602,83.862,-251.221,13.977
0.459,0.604,1.859,74.829,-249.695,20.020
0.601,0.807,2.089,54.993,-243.469,32.532
0.742,1.065,2.268,21.851,-191.589,39.612
0.843,1.119,2.216,21.606,-158.325,20.752
0.801,0.925,2.038,53.162,-112.976,-21.729
0.673,0.590,1.707,73.730,-105.164,-29.602
0.630,0.523,1.577,74.097,-92.957,-20.264
0.672,0.648,1.571,51.941,-86.060,-8.362
0.720,0.785,1.700,11.108,-68.115,2.441
0.767,0.895,1.827,4.272,-53.589,-1.160
0.781,0.907,1.835,11.230,-25.696,-11.292
0.796,0.882,1.792,18.433,-13.855,-14.893
0.814,0.885,1.769,19.409,7.629,-16.418
0.850,0.962,1.803,11.536,19.958,-16.174
0.859,1.003,1.848,-5.371,53.345,-16.296
0.865,1.213,1.810,-7.690,67.200,-18.372
0.830,1.300,1.760,-6.897,75.928,-26.001
0.693,1.145,1.682,2.197,91.125,-56.274
0.611,0.965,1.650,9.338,100.708,-70.129
0.533,0.789,1.604,17.639,122.559,-79.224
0.428,0.558,1.515,12.756,133.728,-74.158
0.405,0.503,1.500,-6.836,155.090,-59.021
0.383,0.473,1.446,-11.108,165.710,-55.115
0.359,0.428,1.368,-9.216,178.650,-52.002
0.322,0.386,1.259,-11.353,180.664,-50.598
0.301,0.336,1.202,-8.850,182.678,-54.016
0.245,0.140,0.982,-5.981,182.190,-55.603
0.222,0.048,0.814,-17.822,181.702,-44.373
0.182,-0.010,0.477,-28.564,182.190,-29.785
0.185,0.053,0.325,-50.049,178.345,-4.028
0.263,0.235,0.114,-58.167,167.053,-1.160
0.307,0.321,0.135,-61.218,122.803,-14.343
0.326,0.297,0.289,-53.650,106.750,-27.405
0.312,0.175,0.277,-45.227,99.182,-44.373
0.302,0.031,0.075,-46.936,102.478,-40.710
0.282,0.044,-0.053,-45.959,108.643,-17.761
0.241,0.118,-0.243,-42.053,106.567,-5.188
0.232,0.182,-0.317,-40.100,97.717,10.010
0.240,0.345,-0.448,-42.236,90.637,7.568
0.226,0.348,-0.507,-35.400,62.439,-12.817
0.145,0.181,-0.576,-28.137,39.185,-20.325
0.094,0.094,-0.523,-20.386,-7.446,-16.296
0.049,0.109,-0.363,-17.395,-18.311,-11.353
-0.001,0.128,-0.357,-13.245,-26.001,-14.099
-0.083,0.095,-0.376,-27.893,-36.743,-11.108
-0.102,0.074,-0.288,-42.297,-49.133,1.465
-0.168,0.065,-0.195,-28.381,-42.908,2.808
-0.202,0.037,-0.193,11.292,-30.151,-4.822
-0.267,-0.070,-0.239,30.396,-29.480,-8.789
-0.325,-0.174,-0.270,52.429,-43.518,0.122
-0.439,-0.198,-0.352,72.205,-62.012,21.423
-0.396,-0.004,-0.285,107.788,-134.521,56.885
-0.185,0.430,0.279,80.505,-155.334,48.645
-0.112,0.572,0.372,43.152,-133.789,-16.846
-0.025,0.349,0.308,39.978,-157.166,-72.632
0.027,0.104,0.471,41.626,-283.569,-84.717
0.302,0.040,1.370,39.917,-343.445,-56.396
0.607,0.138,2.017,48.645,-372.986,-24.231
1.021,0.355,2.572,49.438,-331.116,-23.743
1.108,0.316,2.463,52.063,-240.601,-43.030
1.147,-0.038,2.298,59.875,-223.877,-46.631
1.077,-0.141,2.243,50.964,-188.660,-18.250
1.082,0.203,2.172,25.635,-155.701,1.648
1.146,0.454,2.138,-5.188,-115.112,11.230
1.242,0.512,1.954,-21.545,-51.025,-12.878
1.167,0.374,1.817,-1.831,-44.617,-31.860
1.029,0.255,1.624,31.738,-40.161,-39.795
0.826,0.162,1.328,33.081,-31.494,-29.480
0.760,0.189,1.207,25.391,-13.977,-11.169
0.711,0.271,1.091,17.883,-12.207,-9.888
0.719,0.313,1.109,2.380,-10.986,-14.221
0.646,0.328,1.083,0.488,-1.587,-16.418
0.541,0.307,0.935,3.174,20.081,-18.188
0.536,0.346,0.924,-1.831,19.592,-17.944
0.521,0.302,0.994,-8.423,2.930,-25.269
0.476,0.246,0.981,-5.432,-6.775,-28.870
0.431,0.169,0.983,-5.676,-11.719,-26.550
0.415,0.148,0.983,3.845,-20.447,-21.973
1.252,1.464,0.996,-26.184,-42.603,97.900
1.413,1.667,1.106,-18.372,-42.053,63.843
1.484,1.726,1.336,-17.822,-41.931,33.447
1.453,1.652,1.396,-36.438,-31.189,-28.198
1.324,1.395,1.509,-48.828,-26.428,-50.781
1.212,1.236,1.549,-61.462,-23.804,-70.251
0.965,0.951,1.625,-66.895,-20.264,-71.899
0.864,0.845,1.658,-81.604,6.104,-70.496
0.640,0.657,1.619,-85.754,29.053,-69.153
0.517,0.557,1.520,-85.571,81.665,-61.279
0.343,0.372,1.320,-86.609,101.990,-53.772
0.279,0.302,1.241,-88.989,124.939,-36.682
0.217,0.272,1.073,-89.478,129.211,-28.931
0.230,0.335,0.987,-88.745,131.897,-20.020
0.219,0.441,0.817,-86.731,136.414,-19.897
0.208,0.453,0.753,-81.726,157.288,-21.179
0.246,0.445,0.684,-82.214,165.955,-29.480
0.271,0.347,0.633,-77.271,154.541,-59.875
0.307,0.248,0.511,-72.876,136.597,-65.491
0.301,0.323,0.440,-72.510,117.432,-64.148
0.273,0.403,0.336,-70.984,89.539,-67.810
0.243,0.426,0.181,-67.566,78.735,-75.745
0.240,0.342,0.199,-60.852,50.415,-92.407
0.154,0.004,0.195,-48.828,35.522,-93.018
0.090,-0.094,0.107,-26.123,20.264,-66.162
0.023,-0.026,-0.113,-24.292,19.226,-50.659
0.024,0.007,-0.152,-47.791,23.621,-34.424
0.034,0.038,-0.214,-62.195,30.396,-29.358
0.021,0.065,-0.298,-63.538,35.461,-20.325
-0.038,0.097,-0.441,-52.124,24.658,-20.203
-0.075,0.045,-0.483,-15.930,-10.986,-28.870
-0.133,-0.103,-0.533,-2.258,-29.968,-28.748
-0.161,-0.130,-0.559,0.854,-62.317,-1.526
-0.131,0.086,-0.493,-4.700,-72.876,17.395
-0.135,0.107,-0.436,-0.977,-84.961,23.743
-0.161,-0.005,-0.331,3.418,-93.933,22.705
-0.150,-0.007,-0.293,10.620,-121.521,36.377
-0.085,0.214,-0.213,10.132,-141.357,47.607
-0.047,0.352,-0.123,5.859,-160.828,55.725
0.032,0.472,0.113,-8.057,-181.030,53.589
0.075,0.482,0.253,-11.108,-184.021,47.974
0.108,0.470,0.399,7.263,-193.970,34.790
0.200,0.415,0.640,25.574,-205.383,30.701
0.252,0.438,0.748,42.847,-233.398,36.438
0.359,0.778,1.078,32.593,-240.295,39.490
0.435,0.900,1.319,2.808,-224.609,27.039
0.651,0.870,1.667,-2.808,-206.665,19.043
0.727,0.802,1.714,12.146,-177.124,4.028
0.768,0.568,1.754,23.254,-171.936,-0.916
0.786,0.484,1.804,35.706,-164.246,4.883
0.877,0.553,1.898,36.987,-153.931,10.742
0.925,0.669,1.928,20.081,-115.662,14.099
1.000,0.850,1.922,6.775,-88.013,10.620
1.026,0.882,1.849,1.160,-43.762,-0.183
1.031,0.917,1.710,6.592,-34.546,-5.127
1.026,0.937,1.695,10.986,-27.588,-8.972
1.025,0.960,1.695,13.367,-7.629,-15.991
1.028,1.028,1.716,8.728,6.409,-18.555
1.021,1.068,1.717,-6.287,42.603,-24.353
0.971,1.143,1.621,-7.141,57.190,-30.090
0.934,1.174,1.519,-0.793,69.214,-45.593
0.828,1.173,1.387,-3.723,72.449,-54.199
0.762,1.104,1.356,-10.315,84.595,-70.129
0.641,0.965,1.298,-8.545,89.416,-75.623
0.582,0.905,1.256,-6.836,100.830,-81.299
0.495,0.733,1.136,-10.864,107.422,-83.252
0.457,0.616,1.065,-15.625,112.610,-84.656
0.390,0.530,0.896,-24.780,118.652,-81.421
0.369,0.531,0.852,-31.250,119.507,-80.017
0.312,0.407,0.795,-38.208,122.375,-83.069
0.280,0.303,0.700,-36.255,123.047,-83.252
0.220,0.200,0.496,-41.260,115.723,-70.740
0.209,0.202,0.431,-47.485,110.901,-62.866
0.219,0.214,0.431,-46.753,100.586,-59.204
0.236,0.164,0.465,-39.429,98.328,-61.829
0.234,0.077,0.417,-30.334,92.224,-60.669
0.225,0.002,0.250,-33.508,86.670,-53.711
0.227,0.048,0.150,-42.114,72.693,-38.025
0.238,0.116,0.018,-43.030,62.622,-33.630
0.231,0.098,-0.047,-37.292,38.025,-30.396
0.217,0.063,-0.185,-34.363,24.780,-27.710
0.208,0.086,-0.254,-27.588,3.662,-22.705
0.146,0.073,-0.323,-24.292,-2.136,-22.339
0.108,0.031,-0.349,-16.724,-17.151,-21.179
0.009,-0.102,-0.398,-13.306,-29.663,-18.188
-0.030,-0.156,-0.404,-16.724,-55.786,-2.075
-0.078,-0.188,-0.402,-18.555,-67.993,8.667
-0.106,-0.169,-0.412,-16.968,-92.957,24.780
-0.164,-0.143,-0.443,-13.733,-108.032,30.762
-0.187,-0.136,-0.456,-7.141,-144.409,43.152
-0.226,-0.030,-0.343,-9.033,-161.743,51.208
-0.221,0.130,-0.195,-11.719,-184.448,59.937
-0.216,0.317,0.097,-4.028,-191.345,54.749
-0.235,0.285,0.204,22.888,-208.252,39.917
-0.302,0.160,0.373,36.194,-224.121,37.048
-0.317,0.171,0.558,55.664,-263.306,35.400
-0.273,0.181,1.071,66.101,-275.269,33.936
-0.235,0.147,1.276,77.026,-278.503,45.593
-0.169,0.210,1.462,62.866,-267.029,58.777
-0.123,0.429,1.568,3.845,-238.708,78.552
0.048,0.886,2.017,-6.042,-229.187,72.632
0.116,0.898,2.179,28.381,-204.590,36.316
0.168,0.635,2.186,46.570,-189.026,21.118
0.180,0.544,2.160,48.645,-155.884,13.855
0.208,0.501,2.076,37.781,-136.658,16.541
0.250,0.536,2.093,5.981,-105.103,24.170
0.304,0.630,2.172,3.906,-90.393,24.414
0.273,0.625,2.047,13.550,-75.073,20.569
0.241,0.602,1.882,27.954,-52.856,10.620
0.230,0.558,1.661,30.151,-45.410,7.202
0.217,0.544,1.527,29.175,-31.738,4.333
0.210,0.589,1.375,20.752,-26.733,4.700
0.208,0.600,1.370,11.047,-14.832,0.183
0.182,0.545,1.293,15.015,-8.972,-4.456
0.153,0.497,1.208,22.461,-3.662,-9.338
0.095,0.426,1.096,20.752,-3.662,-9.216
0.076,0.419,1.070,12.817,-3.113,-7.996
0.031,0.416,1.043,9.094,0.610,-8.972
-0.029,0.334,1.005,8.301,8.545,-12.024
0.479,1.143,1.701,-17.822,-34.485,44.189
0.513,1.234,1.864,-9.888,-8.667,22.461
0.528,1.336,2.188,-17.395,4.578,14.282
0.551,1.423,2.390,-47.607,35.828,0.488
0.504,1.452,2.540,-55.359,61.890,-11.047
0.391,1.274,2.440,-57.739,130.920,-38.940
0.192,0.860,2.096,-54.626,159.058,-46.936
0.147,0.748,1.965,-44.861,174.194,-39.063
0.148,0.799,1.909,-50.354,168.579,-31.067
0.132,0.884,1.919,-83.984,176.208,-42.175
0.033,0.896,1.763,-92.529,193.726,-61.340
-0.033,0.750,1.633,-85.022,233.826,-99.304
-0.135,0.279,1.412,-82.947,250.244,-108.704
-0.158,0.119,1.245,-91.980,269.348,-101.807
-0.148,0.046,0.808,-103.821,264.099,-90.088
-0.124,0.108,0.663,-126.099,223.694,-69.336
-0.087,0.247,0.517,-121.216,198.120,-70.068
-0.081,0.205,0.491,-80.627,149.658,-89.783
-0.137,0.012,0.359,-57.617,127.869,-95.459
-0.145,-0.059,0.263,-27.344,90.698,-91.309
-0.130,-0.173,0.168,-21.362,79.834,-85.083
-0.127,-0.195,0.097,-24.658,79.834,-62.256
-0.116,-0.084,-0.108,-33.203,84.045,-47.485
-0.086,0.062,-0.208,-53.162,85.083,-29.175
-0.036,0.176,-0.283,-53.467,78.552,-32.104
-0.042,0.134,-0.307,-33.752,53.406,-43.518
-0.087,-0.032,-0.359,-26.245,38.269,-42.542
-0.096,-0.026,-0.394,-30.945,26.306,-15.808
-0.096,0.050,-0.548,-25.208,20.203,-7.080
-0.125,0.044,-0.629,-9.827,-15.991,0.244
-0.164,0.019,-0.695,-7.568,-38.269,3.723
-0.168,-0.005,-0.696,-0.549,-69.702,12.512
-0.150,-0.082,-0.669,4.944,-83.313,15.198
-0.152,-0.125,-0.622,15.686,-114.380,19.592
-0.184,-0.096,-0.478,18.372,-132.935,24.841
-0.167,-0.011,-0.359,15.625,-150.940,32.104
-0.106,0.152,-0.064,0.305,-171.265,47.607
-0.068,0.227,0.112,-6.226,-177.612,53.406
-0.020,0.309,0.308,0.427,-192.261,52.795
0.072,0.451,0.711,19.592,-200.134,45.898
0.119,0.524,0.877,65.063,-216.248,22.766
0.216,0.599,1.104,73.364,-221.130,9.460
0.258,0.565,1.235,45.593,-212.585,-4.028
0.347,0.566,1.554,23.071,-195.496,-0.427
0.421,0.643,1.659,16.968,-162.598,0.183
0.523,0.721,1.698,35.767,-159.790,-10.010
0.522,0.669,1.686,66.162,-169.128,-31.738
0.544,0.552,1.746,65.552,-169.312,-37.109
0.561,0.509,1.767,32.776,-140.076,-33.813
0.602,0.611,1.786,8.972,-118.225,-26.123
0.644,0.709,1.834,-5.005,-91.675,-18.982
0.716,0.831,1.970,6.409,-86.914,-23.071
0.721,0.817,2.005,23.437,-70.129,-33.691
0.703,0.692,1.988,19.409,-55.298,-35.278
0.699,0.671,1.963,10.986,-39.246,-33.325
0.720,0.757,1.970,0.610,-14.893,-27.100
0.714,0.792,1.990,-0.549,-4.822,-27.161
0.694,0.793,1.971,3.174,24.353,-33.264
0.616,0.720,1.832,5.066,40.283,-35.950
0.574,0.703,1.762,-8.118,70.251,-37.048
0.515,0.734,1.638,-19.104,86.365,-39.063
0.497,0.750,1.534,-29.663,113.525,-55.359
0.460,0.681,1.379,-29.114,117.615,-65.491
0.415,0.594,1.230,-25.208,120.605,-77.759
0.386,0.554,1.084,-22.400,123.108,-82.092
0.350,0.453,0.943,-27.283,116.150,-87.830
0.337,0.392,0.945,-36.682,112.671,-87.463
0.335,0.376,0.867,-53.528,120.056,-80.933
0.334,0.386,0.805,-57.861,125.671,-80.200
0.304,0.300,0.580,-56.213,134.338,-86.182
0.284,0.205,0.482,-53.467,130.188,-88.257
0.278,0.068,0.472,-50.720,104.553,-80.872
0.286,0.046,0.478,-40.833,88.440,-66.772
0.302,0.066,0.350,-37.415,83.496,-59.204
0.303,0.101,0.292,-44.312,74.280,-42.297
0.310,0.113,0.261,-44.312,70.984,-35.645
0.307,0.114,0.219,-28.320,60.364,-28.198
0.282,0.144,0.105,-21.179,51.880,-26.062
0.262,0.151,0.050,-19.775,37.781,-22.461
0.241,0.145,-0.026,-21.729,30.273,-20.081
0.232,0.128,-0.036,-15.808,10.315,-16.968
0.175,0.058,-0.117,-9.338,2.991,-15.198
0.139,0.055,-0.186,-6.836,-11.047,-7.507
0.083,0.085,-0.289,-7.996,-20.996,-3.418
0.054,0.084,-0.338,-5.371,-41.260,1.892
-0.002,0.032,-0.408,-4.456,-51.819,5.127
-0.019,0.007,-0.414,-6.165,-75.317,16.418
-0.036,0.001,-0.401,-8.240,-87.952,23.865
-0.050,0.041,-0.381,-15.259,-116.028,33.081
-0.123,0.140,-0.333,-18.311,-127.563,32.837
-0.167,0.173,-0.287,-20.447,-151.489,31.311
-0.219,0.186,-0.029,-15.869,-168.518,31.006
-0.257,0.105,0.299,12.695,-207.642,30.090
-0.266,0.080,0.492,30.334,-227.234,29.846
-0.214,0.107,1.075,47.119,-250.122,31.982
-0.162,0.143,1.361,45.959,-245.361,36.072
-0.078,0.251,1.552,42.297,-225.220,50.232
-0.051,0.341,1.519,34.363,-218.994,56.458
-0.005,0.456,1.602,12.878,-215.698,58.350
0.013,0.490,1.696,1.648,-203.247,50.293
0.068,0.580,1.892,2.197,-190.979,43.762
0.094,0.590,1.958,8.179,-176.147,36.133
0.118,0.509,1.873,39.185,-148.010,21.484
0.104,0.471,1.745,55.969,-140.808,17.029
0.087,0.453,1.693,49.316,-138.428,19.043
0.112,0.474,1.867,32.104,-133.484,23.010
0.135,0.521,1.960,10.315,-99.487,21.423
0.157,0.570,1.955,11.475,-75.012,14.648
0.147,0.530,1.855,28.015,-45.044,-0.488
0.136,0.425,1.758,33.875,-42.114,-4.944
0.134,0.387,1.734,37.292,-35.950,-8.484
0.120,0.360,1.616,36.621,-29.114,-8.606
0.110,0.371,1.528,34.424,-13.977,-8.667
0.080,0.428,1.391,31.616,-5.615,-7.935
0.048,0.433,1.295,28.503,4.761,-7.629
-0.022,0.381,1.111,23.254,21.667,-11.108
-0.049,0.356,1.029,24.658,25.024,-13.916
-0.069,0.332,0.962,30.945,24.109,-19.470
-0.096,0.250,0.911,30.273,23.376,-20.813
0.417,1.355,1.529,-82.703,-107.605,101.379
0.466,1.462,1.649,-72.693,-46.265,53.711
0.458,1.365,1.699,-57.129,-17.578,24.353
0.453,1.274,1.686,-30.273,7.568,-21.667
0.443,1.099,1.761,-19.714,4.333,-36.499
0.415,1.013,1.818,-13.672,2.808,-50.903
0.319,0.882,1.884,-19.104,11.292,-53.162
0.276,0.828,1.931,-37.415,42.603,-56.213
0.206,0.790,2.021,-46.143,66.406,-58.289
0.185,0.802,2.016,-58.716,117.859,-70.129
0.130,0.759,1.976,-62.256,139.648,-80.200
0.084,0.683,1.929,-58.533,174.194,-97.168
0.027,0.598,1.749,-56.702,182.678,-102.173
0.005,0.574,1.680,-58.960,185.181,-112.000
-0.076,0.380,1.525,-56.213,184.509,-115.356
-0.136,0.223,1.380,-53.040,185.486,-115.051
-0.240,0.000,0.971,-58.350,196.289,-97.961
-0.249,0.033,0.782,-64.575,202.026,-83.435
-0.232,0.106,0.493,-66.406,196.411,-66.589
-0.218,0.042,0.407,-67.871,186.096,-65.979
-0.200,-0.171,0.209,-83.374,168.823,-59.082
-0.191,-0.199,0.071,-96.741,166.077,-49.683
-0.104,-0.123,-0.106,-108.337,153.381,-31.799
-0.056,-0.073,-0.119,-80.505,112.305,-15.991
0.036,0.104,-0.076,-73.242,92.834,-7.263
0.080,0.295,-0.132,-71.045,81.665,-0.061
0.108,0.498,-0.299,-51.758,63.538,-7.874
0.096,0.404,-0.348,-39.795,48.462,-20.813
0.082,0.280,-0.392,-42.419,23.682,-29.419
0.057,0.212,-0.484,-51.270,15.442,-24.353
0.042,0.187,-0.490,-52.856,0.122,-15.137
-0.016,0.080,-0.630,-38.025,-4.883,-12.207
-0.042,0.036,-0.800,7.874,-39.978,-7.019
-0.115,-0.045,-1.036,22.583,-70.007,-1.160
-0.146,-0.096,-1.022,26.550,-135.376,17.517
-0.215,-0.243,-0.812,25.574,-165.466,24.536
-0.262,-0.292,-0.724,32.043,-209.656,36.133
-0.350,-0.259,-0.422,32.776,-227.112,44.739
-0.386,-0.161,-0.219,24.658,-243.896,72.205
-0.397,0.186,0.111,21.729,-249.207,84.534
-0.373,0.377,0.295,26.123,-267.090,85.327
-0.349,0.545,0.733,32.043,-273.010,74.280
-0.348,0.542,1.016,51.025,-273.804,52.856
-0.317,0.431,1.450,72.571,-272.827,41.199
-0.287,0.340,1.573,93.933,-269.836,21.179
-0.201,0.343,1.825,75.684,-263.062,22.522
-0.150,0.493,1.942,18.311,-225.830,37.903
-0.015,0.867,2.050,3.967,-199.829,37.231
0.021,0.943,1.954,21.423,-152.405,12.756
0.007,0.912,1.737,34.241,-142.029,0.732
0.003,0.888,1.793,45.776,-144.653,-16.296
0.045,0.783,2.071,51.331,-143.250,-23.926
0.068,0.719,2.110,52.856,-118.347,-30.273
0.094,0.676,2.092,46.143,-98.389,-27.893
0.113,0.672,2.088,45.227,-60.059,-21.973
0.130,0.628,1.989,45.959,-44.128,-19.470
0.141,0.665,1.980,37.537,-30.518,-14.709
0.180,0.859,2.034,8.606,-4.028,-5.493
0.176,0.927,2.005,0.366,11.108,-5.737
0.157,0.957,1.957,0.488,36.499,-15.259
0.097,0.914,1.863,7.202,45.410,-22.217
0.060,0.857,1.805,22.949,61.890,-33.813
-0.004,0.765,1.712,23.254,72.632,-36.926
-0.017,0.781,1.742,9.460,95.520,-40.649
-0.041,0.848,1.819,5.920,109.253,-43.945
-0.065,0.829,1.738,7.385,142.395,-52.856
-0.124,0.698,1.428,4.761,155.212,-56.274
-0.141,0.611,1.322,-4.150,163.391,-57.983
-0.112,0.517,1.322,-38.147,172.363,-56.763
-0.082,0.514,1.333,-51.941,177.979,-54.199
-0.038,0.468,1.185,-53.345,195.435,-54.321
-0.025,0.428,1.073,-44.800,202.637,-58.411
0.011,0.326,0.871,-24.841,208.313,-69.275
0.018,0.268,0.764,-18.494,214.050,-72.144
0.022,0.133,0.503,-22.644,238.159,-69.275
0.036,0.113,0.407,-52.429,251.770,-59.265
0.089,0.144,0.257,-66.345,252.197,-56.335
0.099,0.152,0.160,-67.932,247.620,-58.472
0.084,0.030,-0.058,-59.387,240.784,-59.998
0.082,-0.033,-0.156,-45.776,208.435,-52.490
0.111,-0.018,-0.259,-43.213,186.157,-43.579
0.156,0.064,-0.187,-36.133,132.996,-25.452
0.242,0.221,-0.028,-32.715,114.746,-20.813
0.230,0.202,-0.072,-31.555,113.220,-20.325
0.156,0.103,-0.487,-35.278,107.727,-16.602
0.174,0.172,-0.578,-50.049,47.363,-6.897
0.209,0.291,-0.494,-49.561,13.367,-9.705
0.216,0.288,-0.476,-34.424,-35.522,-23.804
0.205,0.162,-0.475,-27.405,-55.115,-30.884
0.180,0.083,-0.444,-13.184,-90.027,-33.691
0.136,0.069,-0.327,-4.333,-108.887,-29.724
0.091,0.163,-0.360,0.305,-135.925,-20.569
0.061,0.174,-0.480,-1.038,-161.987,-17.212
-0.073,0.137,-0.587,-5.859,-181.580,-14.526
-0.149,0.136,-0.529,-18.127,-225.830,-8.118
-0.312,0.062,-0.321,-16.418,-249.451,-5.554
-0.412,-0.003,-0.241,4.578,-299.805,6.958
-0.672,-0.043,-0.110,22.461,-329.712,16.785
-0.804,-0.003,0.053,75.256,-407.898,25.696
-1.056,0.052,0.602,100.708,-443.970,24.292
-1.121,0.058,1.066,92.468,-494.507,23.071
-0.976,0.150,2.467,54.199,-499.145,30.029
-0.760,0.390,3.077,3.174,-424.316,38.025
-0.452,0.604,3.206,21.545,-357.422,19.531
-0.409,0.468,2.950,50.354,-262.634,-17.517
-0.315,0.285,2.715,28.503,-238.708,-15.747
-0.249,0.322,2.728,-22.827,-158.813,2.869
-0.141,0.277,2.439,-10.559,-108.215,6.836
-0.112,0.244,2.183,40.405,-61.401,9.094
-0.083,0.320,1.825,46.692,-55.725,11.780
-0.060,0.408,1.699,40.771,-48.279,14.648
-0.043,0.494,1.562,22.034,-25.574,10.620
-0.034,0.565,1.322,12.756,-17.761,4.150
-0.035,0.540,1.297,4.578,-13.977,-6.836
-0.063,0.480,1.271,13.672,-13.733,-9.949
-0.084,0.459,1.219,36.438,-17.761,-13.733
-0.111,0.462,1.235,37.903,-18.005,-16.052
-0.134,0.420,1.246,34.607,-2.258,-23.560
-0.203,0.283,1.109,34.302,6.165,-25.513
0.183,1.071,2.087,-39.978,-60.120,70.801
0.207,1.183,2.204,-30.518,-25.696,48.706
0.173,1.239,2.416,-32.593,-3.357,37.354
0.157,1.241,2.508,-51.392,50.842,15.320
0.089,1.230,2.568,-57.678,82.153,1.953
0.032,1.193,2.540,-58.777,143.677,-31.433
-0.097,1.000,2.348,-58.350,169.128,-47.607
-0.168,0.900,2.232,-75.562,206.482,-72.144
-0.262,0.622,1.973,-86.731,219.543,-83.923
-0.283,0.433,1.825,-100.342,233.093,-81.177
-0.327,0.220,1.607,-110.901,233.643,-69.031
-0.346,0.190,1.521,-122.742,232.300,-55.664
-0.328,0.159,1.358,-118.225,228.943,-55.664
-0.333,0.118,1.228,-104.980,221.985,-57.617
-0.358,0.079,0.881,-102.905,220.764,-57.800
-0.352,0.070,0.729,-98.450,219.421,-68.115
-0.306,-0.032,0.473,-90.759,218.018,-78.003
-0.275,-0.094,0.382,-69.031,205.994,-84.961
-0.198,-0.200,0.260,-61.401,195.862,-79.163
-0.157,-0.216,0.179,-60.120,172.546,-53.467
-0.103,-0.136,0.028,-62.805,159.607,-37.781
-0.071,-0.049,-0.022,-66.833,146.667,-23.926
0.003,0.148,-0.140,-72.815,122.620,-8.728
0.027,0.219,-0.197,-72.571,108.398,-8.789
0.041,0.333,-0.289,-65.857,74.036,-17.090
0.047,0.327,-0.293,-59.875,57.068,-23.926
0.025,0.146,-0.283,-51.270,38.086,-35.217
0.017,0.083,-0.380,-43.335,36.987,-35.156
0.005,0.028,-0.503,-16.296,16.541,-28.015
-0.028,-0.003,-0.661,-8.301,-4.028,-20.325
-0.038,0.012,-0.663,-0.549,-46.326,-2.991
-0.055,0.080,-0.597,2.747,-61.584,0.488
-0.077,0.071,-0.596,11.841,-81.360,-5.615
-0.127,-0.014,-0.645,14.343,-93.811,-8.545
-0.147,-0.036,-0.619,10.254,-131.653,-2.869
-0.180,0.043,-0.431,9.583,-151.733,3.723
-0.187,0.144,-0.287,6.958,-186.401,15.442
-0.162,0.365,0.019,8.911,-202.637,16.785
-0.155,0.422,0.194,18.250,-232.666,6.592
-0.146,0.386,0.651,25.024,-245.178,0.977
-0.113,0.400,0.900,40.710,-264.099,1.953
0.036,0.549,1.339,47.913,-265.381,3.723
0.096,0.620,1.449,68.970,-249.268,-6.897
0.151,0.678,1.581,80.750,-240.234,-19.043
0.178,0.645,1.693,91.675,-224.792,-40.344
0.264,0.491,1.975,84.839,-213.440,-42.969
0.310,0.465,2.071,68.359,-196.228,-40.222
0.362,0.540,2.064,37.231,-153.076,-32.959
0.374,0.586,2.000,33.997,-135.254,-33.691
0.389,0.619,1.964,38.635,-114.624,-41.809
0.411,0.555,1.961,40.466,-106.750,-46.753
0.402,0.441,1.925,31.250,-83.862,-46.753
0.390,0.280,1.839,19.775,-69.397,-38.208
0.394,0.283,1.824,6.470,-47.485,-17.700
0.411,0.406,1.895,5.920,-41.138,-10.498
0.421,0.596,1.961,5.432,-20.142,-6.836
0.405,0.589,1.933,-0.854,16.785,-13.367
0.374,0.476,1.914,-9.521,31.555,-13.794
0.372,0.481,1.990,-23.743,48.950,-9.460
0.365,0.608,2.152,-22.339,59.875,-8.240
0.349,0.686,2.164,-5.493,92.651,-12.756
0.292,0.781,1.971,4.272,110.657,-19.165
0.249,0.733,1.764,4.272,140.259,-33.508
0.188,0.610,1.431,-10.620,149.719,-36.621
0.180,0.607,1.319,-39.673,165.649,-41.321
0.185,0.637,1.125,-44.067,173.523,-47.363
0.164,0.594,1.005,-28.625,187.195,-63.721
0.146,0.352,0.639,-17.578,185.608,-69.153
0.161,0.290,0.474,-34.363,164.551,-71.045
0.189,0.356,0.337,-52.979,152.893,-68.359
0.196,0.412,0.315,-75.134,139.954,-73.120
0.201,0.350,0.270,-79.590,136.475,-80.688
0.228,0.343,0.298,-70.129,110.657,-89.233
0.238,0.332,0.459,-55.359,95.337,-95.581
0.213,0.246,0.420,-16.968,83.862,-107.056
0.174,0.086,0.158,-8.972,80.505,-106.445
0.188,0.058,0.104,-35.156,65.674,-93.262
0.254,0.077,0.274,-52.307,58.167,-84.778
0.267,0.059,0.333,-55.603,55.237,-78.125
0.225,-0.042,0.205,-31.311,60.669,-67.688
0.213,-0.061,0.069,-23.193,63.843,-60.425
0.227,-0.058,-0.158,-23.621,48.767,-45.288
0.228,-0.049,-0.219,-25.330,30.884,-37.598
0.213,-0.057,-0.280,-20.935,-5.737,-18.799
0.193,0.006,-0.337,-17.456,-17.944,-7.874
0.172,0.102,-0.391,-17.822,-32.227,-1.526
0.152,0.074,-0.406,-16.174,-38.086,-7.080
0.138,-0.043,-0.419,-7.996,-57.129,-10.254
0.065,-0.111,-0.472,-8.606,-72.205,-3.540
0.012,-0.075,-0.459,-10.620,-107.971,10.864
-0.077,-0.022,-0.458,-5.066,-124.878,14.221
-0.106,-0.043,-0.479,8.240,-162.781,14.709
-0.238,-0.105,-0.412,7.568,-184.021,16.052
-0.336,-0.109,-0.275,0.549,-226.379,23.437
-0.477,-0.132,0.110,5.005,-243.530,26.489
-0.512,-0.206,0.249,33.020,-269.470,37.048
-0.638,-0.217,0.515,40.466,-286.133,48.340
-0.679,-0.040,0.777,29.175,-318.481,63.965
-0.641,0.269,1.429,20.264,-318.909,61.768
-0.527,0.487,1.993,-13.123,-286.438,42.358
-0.442,0.541,2.063,-11.963,-262.512,31.433
-0.321,0.583,2.419,31.677,-273.315,39.063
-0.261,0.628,2.716,26.428,-281.738,44.617
-0.190,0.698,2.903,-8.423,-221.191,39.490
-0.030,0.823,3.040,-10.437,-173.584,26.428
-0.005,0.743,2.913,37.231,-84.595,-11.169
-0.090,0.276,2.328,68.909,-61.707,-19.043
-0.112,0.132,2.153,82.703,-58.044,0.427
-0.031,0.179,1.978,68.604,-50.476,13.733
0.016,0.256,1.816,35.034,-13.367,24.170
0.046,0.328,1.411,20.020,4.272,27.527
0.065,0.383,1.243,-4.761,18.738,32.715
0.074,0.550,1.056,-9.827,14.832,29.968
0.055,0.585,1.023,-3.906,-2.747,11.841
0.002,0.516,1.000,2.808,-9.521,0.671
-0.026,0.460,0.989,14.709,-15.320,-16.968
-0.089,0.325,0.972,19.043,-16.724,-23.499
-0.115,0.253,0.964,22.217,-20.325,-31.128
-0.172,0.122,0.927,20.569,-21.362,-31.494
-0.043,0.686,2.504,-103.027,-69.519,97.168
-0.022,0.912,2.642,-120.239,4.089,89.416
-0.024,1.038,2.503,-112.427,43.823,77.942
-0.048,1.003,2.356,-101.379,95.764,51.270
-0.136,0.885,2.243,-102.966,108.948,38.879
-0.187,0.864,2.256,-100.403,132.446,17.761
-0.271,0.834,2.188,-90.271,143.494,4.761
-0.320,0.747,2.095,-77.759,164.062,-22.339
-0.427,0.503,1.841,-85.937,176.819,-32.410
-0.469,0.382,1.711,-123.352,205.872,-44.495
-0.505,0.260,1.470,-139.099,219.604,-48.767
-0.505,0.243,1.370,-144.775,232.849,-55.420
-0.477,0.179,1.190,-120.728,250.671,-70.496
-0.463,0.108,1.100,-101.562,251.160,-76.782
-0.449,-0.017,0.987,-76.721,251.038,-89.722
-0.424,-0.308,0.706,-74.158,248.352,-90.271
-0.408,-0.357,0.590,-86.548,224.854,-71.594
-0.356,-0.301,0.498,-91.675,208.374,-60.425
-0.320,-0.293,0.458,-84.534,190.918,-45.166
-0.261,-0.256,0.209,-81.909,192.383,-37.109
-0.224,-0.161,0.053,-92.041,189.880,-18.372
-0.125,0.158,-0.168,-95.276,178.467,-12.695
-0.086,0.303,-0.257,-80.017,144.348,-19.958
-0.026,0.466,-0.365,-64.270,127.197,-30.212
-0.013,0.485,-0.396,-37.659,101.379,-52.063
-0.006,0.419,-0.479,-35.400,92.285,-61.157
-0.007,0.374,-0.498,-35.217,75.745,-70.129
-0.032,0.319,-0.664,-13.977,64.026,-72.937
-0.056,0.275,-0.846,65.857,10.254,-81.177
-0.147,-0.151,-1.006,89.478,-33.813,-75.745
-0.110,-0.202,-0.857,49.316,-106.873,-29.358
-0.044,0.005,-0.610,26.062,-113.770,-10.071
-0.032,0.078,-0.612,16.785,-114.990,-3.174
-0.055,0.068,-0.512,15.564,-125.122,-4.639
-0.068,0.108,-0.418,12.146,-139.465,-3.845
-0.077,0.248,-0.131,-5.981,-170.166,1.465
-0.075,0.337,0.048,-14.587,-184.448,4.028
-0.066,0.437,0.222,-5.737,-208.923,5.859
-0.056,0.541,0.512,6.775,-218.262,2.747
-0.065,0.566,0.651,11.597,-227.539,-13.245
-0.105,0.503,0.888,9.766,-228.394,-21.667
-0.115,0.420,0.976,4.639,-228.699,-25.391
-0.103,0.335,1.124,4.272,-229.248,-22.461
-0.099,0.346,1.165,21.057,-230.591,-19.165
-0.130,0.339,1.189,28.015,-229.919,-20.020
-0.130,0.326,1.250,23.437,-230.957,-19.470
-0.088,0.322,1.484,15.198,-229.004,-18.005
-0.074,0.318,1.575,-1.648,-209.656,-19.897
-0.062,0.259,1.793,2.686,-202.087,-21.545
-0.050,0.222,1.894,28.015,-191.711,-14.587
-0.032,0.273,1.915,29.419,-180.603,-6.165
-0.010,0.352,1.933,12.329,-156.128,5.127
0.024,0.509,2.019,6.470,-140.930,6.104
0.022,0.523,2.008,19.653,-106.506,-2.380
0.022,0.373,1.933,33.203,-94.055,-7.690
0.033,0.319,1.881,39.673,-78.247,-4.578
0.078,0.501,1.918,27.222,-70.557,0.916
0.086,0.614,1.988,12.817,-58.472,3.174
0.082,0.662,2.010,3.052,-17.639,-7.019
0.068,0.634,1.901,6.165,1.953,-13.184
0.062,0.618,1.858,4.761,24.536,-17.029
0.045,0.614,1.908,-0.549,33.386,-17.517
0.033,0.604,1.926,-4.883,55.969,-17.761
0.016,0.643,1.928,-4.333,67.749,-17.456
0.004,0.699,1.925,-0.732,92.285,-22.705
-0.034,0.774,1.918,0.916,105.591,-28.687
-0.050,0.758,1.889,8.728,134.949,-43.762
-0.065,0.669,1.647,10.193,150.513,-50.171
-0.057,0.667,1.511,-6.409,167.725,-54.504
-0.022,0.688,1.441,-18.311,169.983,-57.983
-0.025,0.666,1.373,-18.250,181.213,-73.364
-0.043,0.548,1.115,-11.780,187.561,-81.482
-0.048,0.470,1.033,-19.226,194.824,-91.736
-0.051,0.374,0.853,-29.968,199.219,-94.055
-0.041,0.333,0.759,-52.551,202.454,-96.069
0.041,0.326,0.729,-59.143,200.073,-95.154
0.094,0.355,0.737,-53.589,203.308,-95.703
0.175,0.386,0.638,-39.185,205.749,-99.670
0.206,0.385,0.548,-22.461,195.862,-107.056
0.212,0.274,0.568,-30.823,192.200,-109.497
0.203,0.127,0.520,-33.875,204.712,-109.497
0.276,0.060,0.362,-31.067,202.698,-102.722
0.317,0.112,0.331,-32.898,184.021,-93.079
0.360,0.135,0.169,-37.537,177.368,-92.346
0.363,0.074,0.079,-56.763,159.302,-89.661
0.407,-0.054,-0.078,-58.838,143.372,-85.388
0.414,-0.035,-0.217,-37.354,90.027,-64.758
0.434,0.129,-0.328,-30.090,53.650,-55.542
0.416,0.209,-0.310,-23.010,1.648,-46.692
0.393,0.207,-0.304,-19.897,-10.864,-48.035
0.329,0.204,-0.344,-17.944,-30.334,-52.063
0.282,0.145,-0.411,-15.381,-42.603,-54.199
0.174,-0.059,-0.444,-6.775,-84.534,-53.589
0.111,-0.087,-0.420,-4.639,-110.413,-45.105
-0.003,-0.038,-0.299,-22.156,-144.348,-19.470
-0.036,-0.070,-0.231,-38.513,-141.968,1.831
-0.030,-0.189,-0.211,-39.551,-138.977,13.367
-0.028,-0.225,-0.253,-41.077,-147.034,33.936
-0.117,-0.111,-0.170,-49.500,-155.518,41.321
-0.191,-0.033,-0.026,-45.654,-172.791,45.837
-0.310,-0.103,0.120,-25.269,-186.096,47.668
-0.314,-0.062,0.235,0.854,-229.004,59.021
-0.272,0.074,0.654,1.160,-238.342,57.068
-0.288,0.035,0.762,-1.831,-219.910,45.044
-0.314,0.038,0.739,-3.052,-217.651,47.241
-0.291,0.102,0.791,-3.540,-239.380,55.603
-0.287,0.128,1.046,-0.916,-245.422,55.847
-0.315,0.131,1.166,5.859,-248.535,59.448
-0.332,0.235,1.319,4.089,-247.986,62.012
-0.296,0.304,1.366,-5.737,-239.563,61.279
-0.225,0.460,1.427,-5.432,-237.305,57.800
-0.227,0.511,1.582,8.728,-247.009,45.837
-0.236,0.519,2.059,21.606,-244.141,39.063
-0.217,0.442,2.156,42.358,-201.477,25.696
-0.138,0.389,2.135,37.598,-175.598,26.062
-0.095,0.451,2.096,15.442,-143.799,36.316
-0.072,0.586,2.099,10.742,-136.963,37.354
-0.089,0.562,2.091,14.709,-127.991,32.166
-0.116,0.438,1.944,28.381,-89.478,16.052
0.095,0.786,2.396,7.507,-1.282,31.677
0.067,0.826,2.719,31.189,43.701,22.278
-0.109,0.762,3.082,35.889,81.787,14.343
-0.206,0.710,2.965,-7.568,175.964,1.404
-0.295,0.684,2.545,-43.701,212.158,-6.775
-0.315,0.657,2.427,-86.121,248.901,-30.884
-0.354,0.469,2.097,-86.426,261.536,-39.978
-0.377,0.356,1.838,-85.022,283.264,-38.818
-0.386,0.282,1.345,-96.130,285.522,-31.555
-0.374,0.281,1.124,-126.282,274.658,-22.278
-0.348,0.258,0.770,-140.442,267.822,-21.484
-0.335,0.252,0.640,-143.372,253.052,-28.931
-0.323,0.141,0.459,-127.991,239.624,-37.781
-0.308,0.083,0.409,-85.510,205.872,-51.880
-0.270,-0.057,0.327,-68.970,191.406,-56.885
-0.256,-0.148,0.283,-53.162,168.030,-58.289
-0.241,-0.245,0.102,-54.382,158.203,-51.208
-0.227,-0.238,0.033,-60.242,136.047,-24.719
-0.188,-0.125,0.047,-59.753,126.404,-9.399
-0.173,-0.015,0.033,-57.861,121.948,3.845
-0.151,0.252,-0.226,-54.871,122.620,14.526
-0.118,0.378,-0.346,-58.960,112.366,9.888
-0.063,0.450,-0.340,-65.247,59.082,-15.137
-0.012,0.326,-0.183,-55.237,34.973,-27.710
-0.030,0.254,-0.257,-26.489,16.907,-33.630
-0.057,0.215,-0.513,-16.479,8.911,-30.884
-0.051,0.213,-0.576,-6.714,-15.991,-23.132
-0.047,0.276,-0.631,-9.033,-28.809,-20.447
-0.043,0.285,-0.622,-23.376,-58.105,-22.766
-0.066,0.249,-0.588,-33.569,-69.458,-24.170
-0.088,0.239,-0.578,-39.978,-85.205,-23.437
-0.118,0.192,-0.599,-33.630,-97.534,-24.231
-0.137,0.180,-0.580,-22.095,-144.470,-25.269
-0.164,0.156,-0.237,-16.968,-174.499,-25.635
-0.187,0.144,0.013,5.310,-211.243,-23.315
-0.168,0.208,0.416,15.259,-216.309,-21.729
-0.126,0.214,0.581,26.062,-222.168,-24.353
-0.071,0.066,0.802,29.358,-227.478,-25.208
-0.052,-0.030,0.900,20.081,-247.986,-9.338
-0.071,0.066,1.234,5.005,-256.470,10.803
-0.051,0.260,1.497,-3.418,-259.094,31.433
0.011,0.404,1.744,19.104,-254.150,28.320
0.024,0.417,1.689,58.533,-244.080,18.677
0.080,0.505,1.720,54.016,-241.821,16.968
0.114,0.567,1.856,38.025,-236.938,17.090
0.130,0.614,1.960,9.827,-195.740,15.869
0.129,0.613,1.936,18.066,-168.396,9.827
0.108,0.535,1.848,69.397,-141.296,-5.798
0.090,0.386,1.684,86.609,-143.494,-8.362
0.091,0.408,1.713,65.247,-146.057,2.136
0.108,0.624,1.789,40.100,-133.423,9.827
0.109,0.677,1.794,6.592,-91.492,8.484
0.097,0.676,1.852,5.127,-72.754,0.610
0.091,0.639,1.853,13.977,-58.716,-7.263
0.088,0.673,1.891,29.114,-45.105,-11.536
0.089,0.722,1.957,24.231,-38.208,-11.902
0.082,0.745,2.005,-7.874,-2.991,-15.747
0.058,0.714,1.971,-30.518,23.682,-17.456
0.049,0.702,1.909,-69.885,77.393,-16.846
0.027,0.790,1.680,-79.895,99.854,-16.541
0.022,0.781,1.552,-93.811,125.366,-23.682
0.037,0.878,1.516,-98.145,127.502,-27.710
0.031,0.901,1.539,-70.679,127.563,-54.687
-0.002,0.808,1.294,-49.377,130.737,-65.186
0.009,0.781,1.192,-35.522,122.192,-69.885
0.029,0.877,1.228,-46.814,120.789,-69.763
0.016,0.904,1.284,-72.144,141.052,-81.848
-0.001,0.782,1.216,-72.815,155.823,-88.196
0.005,0.693,1.079,-53.284,161.194,-88.013
0.058,0.694,0.973,-46.448,148.560,-86.731
0.081,0.715,0.994,-32.715,122.803,-95.825
0.119,0.669,1.026,-26.428,116.821,-104.065
0.146,0.612,0.979,-23.926,121.582,-114.136
0.171,0.498,0.808,-26.245,123.474,-115.112
0.174,0.459,0.785,-31.433,123.901,-114.136
0.162,0.417,0.771,-32.227,133.972,-106.689
0.148,0.292,0.544,-27.588,142.639,-102.661
0.194,0.186,0.402,-21.790,140.625,-93.445
0.211,0.145,0.426,-15.442,132.690,-86.609
0.179,-0.029,0.363,7.080,132.385,-62.622
0.153,-0.105,0.261,13.672,139.648,-44.800
0.139,-0.116,0.080,15.808,148.621,-16.846
0.161,0.168,-0.279,-2.991,140.930,-14.587
0.182,0.241,-0.261,-38.940,100.403,-34.363
0.187,0.192,-0.223,-9.888,55.359,-52.063
0.148,0.016,-0.363,16.724,39.490,-58.533
0.127,-0.079,-0.421,48.828,-0.183,-58.777
0.061,-0.211,-0.425,55.664,-21.912,-50.354
0.019,-0.222,-0.452,51.392,-54.687,-11.963
0.015,0.043,-0.593,41.138,-68.665,7.019
0.023,0.079,-0.592,31.921,-115.784,12.939
0.002,-0.005,-0.467,29.358,-140.930,13.428
-0.020,-0.011,-0.442,21.790,-174.988,24.109
-0.067,0.079,-0.377,15.930,-187.866,30.579
-0.082,0.157,-0.318,16.052,-210.205,30.457
-0.173,0.200,-0.254,25.024,-217.529,21.484
-0.369,-0.049,-0.190,37.720,-233.093,0.916
-0.469,-0.207,-0.121,31.677,-244.141,-0.061
-0.614,-0.311,0.133,-10.925,-274.536,28.259
-0.679,-0.175,0.370,-55.115,-316.833,79.285
-0.767,0.320,1.035,-51.147,-336.243,96.741
-0.785,0.498,1.353,13.306,-364.502,90.210
-0.852,0.654,2.009,44.922,-373.230,74.036
-0.859,0.744,2.361,73.425,-364.746,40.222
-0.749,0.662,2.786,80.139,-336.121,25.330
-0.645,0.508,2.809,84.717,-238.403,4.395
-0.486,0.238,2.572,82.642,-188.171,0.183
-0.443,0.183,2.456,67.261,-129.578,5.493
-0.383,0.228,2.372,60.730,-116.394,11.230
-0.369,0.284,2.306,56.091,-99.915,15.930
-0.312,0.363,1.944,44.617,-42.847,17.822
-0.252,0.370,1.704,39.856,-16.968,17.151
-0.171,0.382,1.378,34.668,-3.418,19.470
-0.161,0.419,1.315,30.823,-7.629,22.034
-0.159,0.492,1.315,18.982,-15.747,21.179
-0.172,0.576,1.395,17.883,-16.846,14.282
-0.184,0.558,1.422,27.588,-6.531,-5.737
-0.213,0.410,1.315,36.316,4.761,-14.587
-0.234,0.307,1.214,45.715,18.188,-21.301
-0.101,0.530,2.162,-29.907,-51.331,15.503
-0.133,0.473,2.396,-46.204,-14.587,15.259
-0.176,0.442,2.761,-60.852,13.550,19.592
-0.195,0.481,2.797,-76.965,86.670,23.376
-0.264,0.540,2.508,-76.599,120.239,20.325
-0.302,0.543,2.348,-82.397,159.058,9.338
-0.351,0.572,2.219,-91.858,172.241,3.479
-0.364,0.567,2.154,-105.652,205.688,-10.559
-0.384,0.437,1.841,-108.765,224.121,-18.616
-0.379,0.344,1.629,-122.925,246.521,-30.884
-0.306,0.294,1.327,-137.390,249.023,-33.997
-0.254,0.349,1.240,-161.011,251.587,-40.771
-0.210,0.474,1.040,-177.673,258.850,-49.133
-0.234,0.442,0.887,-204.590,281.128,-80.444
-0.288,0.136,0.620,-195.435,275.696,-91.370
-0.298,0.006,0.543,-174.438,253.540,-92.712
-0.311,-0.025,0.387,-123.169,199.341,-83.252
-0.332,0.018,0.272,-104.553,179.993,-80.322
-0.378,-0.056,-0.027,-78.552,151.794,-86.182
-0.388,-0.139,-0.142,-70.618,138.916,-87.402
-0.380,-0.212,-0.378,-58.960,116.760,-75.195
-0.356,-0.236,-0.435,-56.091,103.394,-64.758
-0.258,-0.011,-0.396,-76.721,77.148,-29.663
-0.209,0.190,-0.339,-88.989,66.711,-18.982
-0.181,0.344,-0.354,-81.909,53.406,-27.771
-0.190,0.285,-0.436,-67.871,46.875,-37.109
-0.210,0.187,-0.508,-48.218,16.418,-43.823
-0.204,0.132,-0.505,-34.302,-4.089,-43.457
-0.192,0.099,-0.521,3.723,-41.504,-33.691
-0.125,0.132,-0.668,18.188,-58.899,-25.879
-0.108,0.163,-0.743,20.996,-90.149,-15.259
-0.122,0.184,-0.703,12.329,-108.521,-14.343
-0.125,0.224,-0.579,-8.850,-147.949,-15.625
-0.105,0.309,-0.279,-8.606,-163.879,-19.043
-0.104,0.320,-0.177,21.179,-189.026,-28.809
-0.149,0.263,-0.044,37.537,-204.163,-32.410
-0.163,0.242,0.114,49.316,-243.896,-29.236
-0.144,0.250,0.604,46.204,-258.057,-20.813
-0.107,0.344,0.791,22.217,-257.202,1.160
-0.065,0.548,0.955,8.484,-247.986,4.150
-0.063,0.525,1.091,-5.249,-244.995,-1.526
-0.051,0.463,1.660,3.845,-252.319,-2.625
-0.033,0.476,1.830,48.401,-246.155,-4.089
0.036,0.422,1.887,59.631,-236.938,-6.165
0.072,0.362,1.943,35.522,-210.815,-0.549
0.134,0.372,2.072,25.513,-191.528,6.165
0.165,0.450,2.065,44.800,-157.715,10.254
0.221,0.596,2.047,59.631,-147.827,5.493
0.238,0.606,2.001,57.678,-122.375,-6.104
0.251,0.638,1.988,36.438,-106.506,-8.911
0.255,0.697,2.024,5.371,-69.031,-15.564
0.239,0.658,1.938,8.789,-49.866,-21.729
0.228,0.592,1.884,17.761,-35.339,-26.306
0.219,0.545,1.859,29.541,-21.057,-26.123
0.209,0.562,1.849,28.137,-14.343,-23.499
0.207,0.605,1.860,15.137,8.118,-21.118
0.209,0.707,1.891,10.803,21.423,-22.339
0.205,0.738,1.878,15.076,45.837,-27.771
0.174,0.716,1.789,19.043,55.603,-30.457
0.156,0.713,1.767,20.874,71.777,-32.410
0.135,0.877,1.745,14.832,82.703,-32.349
0.134,1.008,1.748,-11.475,116.882,-45.471
0.086,0.983,1.676,-22.095,143.372,-60.059
0.054,0.880,1.496,-34.363,196.106,-82.275
0.035,0.835,1.060,-33.447,202.942,-101.196
0.079,0.640,0.958,-5.127,177.246,-141.479
0.117,0.363,0.885,0.732,162.231,-127.747
0.107,0.340,0.822,-10.010,146.301,-100.159
0.094,0.365,0.650,-18.066,140.991,-94.238
0.097,0.397,0.583,-31.311,137.451,-90.393
0.122,0.428,0.506,-28.992,134.338,-92.468
0.132,0.432,0.539,-22.766,120.300,-101.562
0.086,0.344,0.485,-13.733,115.417,-107.483
0.096,0.154,0.220,-12.390,103.943,-113.770
0.120,0.072,0.161,-19.531,94.543,-114.197
0.175,0.097,0.102,-25.208,79.956,-109.375
0.179,0.111,0.095,-14.954,60.242,-107.666
0.199,0.061,0.084,-5.310,45.532,-109.436
0.209,0.013,0.083,2.869,31.250,-110.474
0.229,-0.073,0.145,-8.484,16.418,-108.765
0.236,-0.086,0.141,-20.020,16.663,-104.736
0.245,-0.080,0.115,-25.208,17.029,-88.989
0.258,-0.129,0.049,-18.005,13.550,-77.637
0.257,-0.108,0.036,-16.907,4.761,-49.438
0.228,-0.101,-0.020,-16.296,-0.549,-39.917
0.207,-0.129,-0.085,-23.621,-19.714,-24.170
0.177,-0.133,-0.173,-22.339,-38.940,-12.024
0.126,-0.164,-0.158,-4.700,-93.872,14.038
0.083,-0.184,-0.219,-2.686,-113.892,26.428
-0.035,-0.008,-0.206,-20.081,-143.066,49.988
-0.089,0.017,-0.139,-24.902,-154.358,48.889
-0.117,0.029,0.046,-10.254,-179.260,35.828
-0.130,0.071,0.189,0.916,-197.693,31.128
-0.229,0.076,0.392,22.400,-228.271,26.001
-0.276,0.049,0.425,30.334,-240.906,26.245
-0.309,0.001,0.458,37.964,-268.433,30.151
-0.389,-0.057,0.701,34.119,-277.954,31.372
-0.424,-0.029,0.948,6.592,-277.649,30.701
-0.437,0.196,1.443,-4.578,-266.907,29.724
-0.406,0.271,1.587,9.949,-244.019,17.456
-0.345,0.176,1.774,20.935,-236.267,8.545
-0.324,0.148,1.854,16.479,-219.971,6.226
-0.269,0.284,1.982,12.268,-209.229,10.254
-0.252,0.319,2.033,16.785,-178.833,12.451
-0.248,0.317,2.107,18.005,-160.461,13.611
-0.245,0.319,2.099,18.921,-118.774,18.616
-0.220,0.290,1.891,19.104,-101.746,20.630
-0.191,0.301,1.855,-12.146,-84.534,20.996
-0.155,0.331,1.897,-29.358,-70.435,18.921
-0.147,0.334,1.802,-24.536,-31.860,15.503
-0.124,0.362,1.613,-10.803,-23.193,13.916
-0.125,0.375,1.551,10.254,-19.531,9.827
-0.134,0.356,1.368,11.414,-18.555,8.667
-0.144,0.346,1.310,6.287,-17.456,5.554
-0.178,0.280,1.189,5.920,-12.390,2.563
-0.195,0.216,1.126,11.108,-2.319,-3.113
-0.209,0.137,1.061,12.512,-2.136,-4.822
-0.222,0.104,1.063,7.141,-1.404,-7.812
-0.236,0.039,1.015,3.967,0.732,-6.287
0.075,1.186,2.057,-55.908,-89.111,61.584
0.102,1.242,2.321,-66.956,-20.264,21.851
0.104,1.126,2.545,-66.589,21.423,4.761
0.083,1.054,2.662,-40.771,76.355,-14.771
0.023,0.942,2.968,-25.757,94.116,-20.203
-0.007,0.868,3.123,-5.920,137.390,-26.733
-0.125,0.658,2.957,-5.798,173.279,-27.100
-0.180,0.568,2.576,-38.940,245.422,-26.428
-0.216,0.420,1.955,-65.369,259.460,-28.320
-0.233,0.415,1.926,-97.656,254.700,-31.250
-0.319,0.330,1.836,-92.957,257.446,-33.203
-0.353,0.235,1.659,-89.661,276.978,-32.104
-0.370,0.080,1.267,-96.863,279.846,-27.222
-0.365,0.021,1.076,-114.685,266.846,-11.536
-0.345,-0.023,0.753,-121.155,254.089,-3.845
-0.324,0.016,0.669,-122.131,223.328,3.540
-0.274,0.071,0.566,-112.000,211.548,-0.122
-0.252,0.061,0.487,-96.008,202.576,-12.451
-0.211,0.145,0.234,-96.741,199.402,-15.991
-0.200,0.170,0.117,-100.525,182.495,-21.118
-0.177,0.161,-0.099,-95.825,169.189,-22.705
-0.181,0.042,-0.184,-75.195,135.193,-15.015
-0.144,0.065,-0.238,-68.054,114.441,-2.380
-0.131,0.096,-0.234,-54.932,77.759,2.502
-0.094,0.231,-0.195,-57.007,65.002,1.526
-0.069,0.317,-0.173,-63.477,56.213,-1.404
-0.058,0.307,-0.246,-64.575,44.434,-13.428
-0.063,0.257,-0.361,-53.711,37.903,-17.883
-0.053,0.239,-0.524,-31.799,7.324,-19.043
-0.040,0.298,-0.526,-30.640,-12.085,-16.418
-0.031,0.447,-0.489,-34.363,-41.687,-16.541
-0.036,0.500,-0.506,-31.982,-52.612,-23.132
-0.058,0.456,-0.566,-13.184,-77.148,-42.603
-0.076,0.343,-0.578,3.784,-93.750,-50.293
-0.093,0.198,-0.591,35.278,-128.052,-52.917
-0.120,0.003,-0.626,39.978,-144.470,-46.997
-0.140,-0.015,-0.578,25.574,-178.345,-26.550
-0.183,0.083,-0.248,16.296,-194.702,-17.761
-0.186,0.193,-0.040,16.418,-212.952,-16.724
-0.200,0.206,0.147,26.367,-213.257,-25.085
-0.223,0.081,0.179,31.067,-225.586,-32.166
-0.255,-0.045,0.478,21.118,-239.197,-21.667
-0.267,0.042,0.764,9.277,-257.507,2.441
-0.216,0.387,1.357,17.334,-255.188,3.601
-0.134,0.517,1.500,52.307,-234.070,-11.414
-0.002,0.486,1.581,59.814,-224.792,-15.381
0.040,0.448,1.651,31.677,-209.167,-8.362
0.136,0.477,1.797,16.663,-200.378,-2.136
0.161,0.538,1.863,24.292,-192.139,5.005
0.195,0.665,1.987,42.419,-190.124,5.249
0.212,0.646,1.983,59.753,-170.837,-5.554
0.243,0.567,1.913,51.758,-156.555,-9.888
0.252,0.579,1.918,33.813,-133.484,-13.489
0.251,0.656,2.013,32.227,-123.047,-18.066
0.237,0.691,2.046,36.560,-109.863,-25.452
0.223,0.708,2.020,54.260,-79.285,-42.419
0.203,0.633,1.930,57.495,-67.139,-50.110
0.192,0.545,1.926,45.532,-40.283,-47.485
0.194,0.578,1.890,35.400,-22.766,-37.903
0.204,0.670,1.881,20.996,3.662,-31.311
0.208,0.820,1.950,20.813,12.329,-34.790
0.184,0.861,1.973,32.471,32.654,-45.776
0.085,0.808,1.884,37.842,46.021,-53.467
0.056,0.728,1.804,35.217,65.918,-67.383
0.053,0.618,1.775,30.640,72.388,-72.266
0.064,0.610,1.757,27.710,82.886,-77.515
0.043,0.629,1.767,25.269,108.215,-94.177
0.004,0.595,1.744,25.757,121.033,-105.347
-0.030,0.521,1.670,8.301,161.133,-124.084
-0.017,0.372,1.522,-10.681,186.096,-127.991
-0.002,0.303,1.409,-31.982,236.694,-131.531
0.051,0.100,0.984,-25.452,252.747,-129.578
0.087,0.024,0.777,0.305,247.986,-111.938
0.104,0.031,0.588,1.587,228.821,-99.426
0.123,0.037,0.547,-17.029,178.467,-88.684
0.174,0.075,0.446,-28.870,153.564,-87.952
0.176,0.118,0.412,-44.006,123.474,-79.285
0.161,0.062,0.277,-45.532,123.291,-73.181
0.188,0.017,0.116,-39.917,120.911,-52.063
0.305,0.108,-0.059,-44.678,100.891,-39.917
0.329,0.222,0.066,-51.575,40.222,-32.166
0.292,0.261,0.022,-41.565,26.917,-38.635
0.285,0.210,-0.070,-35.645,17.395,-51.270
0.231,0.040,0.005,-31.067,11.963,-52.734
0.202,-0.008,-0.016,-20.508,9.277,-49.072
0.188,0.016,-0.086,-10.986,-1.465,-33.508
0.164,0.035,-0.080,-11.414,-13.306,-28.381
0.105,-0.006,-0.072,3.296,-39.001,-23.437
0.084,-0.042,-0.068,12.695,-51.331,-19.897
0.020,-0.079,-0.169,18.738,-60.120,-7.629
-0.026,-0.039,-0.316,11.658,-65.796,5.859
-0.103,0.097,-0.505,2.991,-80.200,7.690
-0.125,0.094,-0.450,-1.770,-99.365,5.432
-0.136,-0.083,-0.266,13.306,-132.141,-1.831
-0.160,-0.126,-0.160,17.334,-144.531,-1.343
-0.188,-0.057,-0.035,16.907,-158.447,8.484
-0.188,0.008,-0.052,15.259,-166.382,11.658
-0.160,0.145,0.148,-7.080,-209.534,15.198
-0.170,0.157,0.329,-14.648,-232.239,15.686
-0.202,0.146,0.495,2.258,-260.559,14.343
-0.309,0.074,0.855,15.564,-275.085,12.634
-0.370,0.025,1.128,7.080,-300.049,22.034
-0.434,0.206,1.882,-12.207,-300.476,35.217
-0.416,0.396,2.222,-22.827,-263.550,46.448
-0.349,0.472,2.329,-7.446,-226.318,38.147
-0.310,0.384,2.248,17.395,-165.833,18.127
-0.205,0.193,2.094,24.414,-150.452,14.587
-0.175,-0.005,1.876,37.964,-135.620,18.494
-0.197,-0.081,1.777,40.466,-132.324,24.902
-0.205,0.058,1.647,33.569,-121.521,44.434
-0.171,0.297,1.718,21.362,-107.788,45.532
-0.161,0.486,1.956,30.579,-92.896,31.616
-0.171,0.369,1.907,49.255,-72.937,15.686
-0.180,0.210,1.771,48.889,-45.471,2.625
-0.192,0.099,1.616,20.752,-37.598,6.836
-0.194,0.115,1.524,-4.456,-16.235,14.526
-0.179,0.099,1.212,4.089,-10.193,14.526
-0.179,0.070,1.100,11.841,-13.306,13.245
-0.197,0.117,1.060,3.601,-17.944,14.160
-0.186,0.359,2.222,-22.644,-46.509,38.025
-0.226,0.357,2.288,-53.894,-15.259,38.208
-0.318,0.401,2.453,-79.285,2.563,40.955
-0.437,0.436,2.340,-113.098,50.110,40.161
-0.501,0.392,2.194,-114.868,72.388,33.142
-0.594,0.190,1.910,-98.389,98.511,14.526
-0.623,0.101,1.809,-93.201,111.267,10.132
-0.643,0.096,1.784,-116.943,142.578,15.991
-0.648,0.371,1.842,-133.240,159.241,18.494
-0.641,0.484,1.847,-141.541,188.477,4.639
-0.646,0.411,1.672,-139.709,200.439,-6.348
-0.636,0.365,1.506,-144.531,213.074,-18.372
-0.599,0.342,1.279,-148.865,212.097,-22.400
-0.583,0.333,1.176,-143.921,211.792,-31.860
-0.526,0.328,0.897,-134.338,212.158,-38.208
-0.490,0.335,0.792,-115.845,206.909,-55.420
-0.460,0.210,0.569,-111.206,206.055,-65.063
-0.443,0.141,0.429,-120.300,208.618,-74.829
-0.405,0.088,0.261,-123.901,207.397,-76.355
-0.378,0.078,0.185,-101.135,196.289,-79.590
-0.299,0.086,0.003,-82.458,183.533,-81.177
-0.259,0.102,-0.103,-68.970,152.405,-80.688
-0.181,0.181,-0.263,-82.153,139.465,-78.491
-0.158,0.217,-0.272,-105.408,118.103,-75.256
-0.142,0.230,-0.233,-99.792,109.192,-73.242
-0.133,0.246,-0.231,-58.594,87.036,-65.674
-0.109,0.285,-0.364,-31.616,72.693,-63.049
-0.094,0.283,-0.464,-7.385,55.664,-61.768
-0.043,0.231,-0.615,15.686,15.747,-60.242
-0.017,0.148,-0.642,14.038,-3.784,-59.631
0.001,0.059,-0.637,0.000,-36.133,-46.753
0.002,-0.006,-0.600,-2.441,-51.025,-34.729
0.002,0.098,-0.630,10.498,-83.923,-13.855
-0.005,0.154,-0.630,16.907,-100.891,-8.423
-0.038,0.235,-0.542,18.250,-135.620,-7.141
-0.058,0.244,-0.415,3.113,-165.833,-10.437
-0.126,0.188,-0.035,-5.188,-173.523,-10.620
-0.164,0.146,0.117,7.751,-172.913,-3.357
-0.249,0.106,0.209,26.550,-176.025,2.380
-0.279,0.149,0.280,46.387,-208.069,11.719
-0.282,0.256,0.629,44.556,-227.600,12.756
-0.281,0.301,0.827,38.269,-241.699,12.085
-0.264,0.467,1.198,20.264,-245.178,9.888
-0.251,0.502,1.403,21.606,-238.586,5.005
-0.231,0.478,1.569,66.406,-223.022,-11.658
-0.181,0.355,1.625,90.088,-215.027,-16.846
-0.166,0.301,1.563,83.984,-199.951,-14.587
-0.167,0.328,1.714,57.495,-195.435,-9.827
-0.138,0.474,1.925,24.536,-175.537,-5.249
-0.064,0.598,2.136,37.109,-155.151,-11.780
-0.041,0.508,2.067,74.707,-112.488,-27.710
0.006,0.338,1.899,79.651,-101.135,-29.602
0.031,0.350,1.892,51.697,-95.154,-21.423
0.067,0.591,2.045,28.870,-87.158,-16.968
0.069,0.668,2.090,19.714,-55.481,-20.935
0.072,0.646,1.973,31.982,-41.931,-25.330
0.081,0.592,1.889,47.058,-23.132,-30.029
0.110,0.630,1.869,38.818,-12.146,-29.480
0.116,0.796,1.984,1.343,20.813,-35.278
0.097,1.229,2.249,-11.658,41.626,-44.983
0.057,1.320,2.275,-8.606,63.354,-60.364
-0.045,1.152,2.098,30.151,96.924,-96.191
-0.056,1.035,1.950,49.683,108.398,-108.215
-0.051,0.909,1.815,65.674,130.432,-124.451
-0.047,0.584,1.621,55.298,137.451,-129.333
-0.051,0.480,1.612,11.658,142.578,-127.380
-0.127,0.286,1.579,-5.859,152.405,-125.366
-0.164,0.183,1.512,-24.292,186.890,-113.281
-0.144,0.052,1.264,-27.344,200.500,-103.088
-0.108,0.044,1.093,-26.367,194.092,-82.214
-0.055,0.151,0.865,-26.367,177.002,-75.134
-0.049,0.175,0.869,-20.203,153.870,-72.876
-0.062,0.042,0.872,-10.559,155.762,-72.693
-0.049,-0.004,0.840,-3.967,172.974,-58.838
-0.005,-0.034,0.805,-12.634,184.387,-47.363
0.034,-0.019,0.707,-21.851,196.411,-30.518
0.070,0.009,0.435,-15.320,182.922,-27.771
0.082,0.005,0.346,-8.545,161.194,-27.161
0.095,-0.013,0.310,-7.202,127.991,-25.269
0.122,0.052,0.195,-10.132,122.925,-21.362
0.144,0.130,0.100,-13.123,118.469,-18.494
0.208,0.200,-0.093,-11.780,111.816,-21.301
0.228,0.167,-0.133,-1.465,93.323,-30.212
0.249,0.086,-0.263,5.005,85.449,-32.654
0.250,0.044,-0.323,12.390,59.143,-30.212
0.251,-0.007,-0.471,11.536,42.419,-26.245
0.245,-0.025,-0.540,-4.822,2.808,-13.489
0.228,0.020,-0.577,-17.883,-19.226,-4.822
0.217,0.080,-0.547,-31.982,-59.814,6.348
0.194,0.233,-0.466,-28.442,-77.454,8.972
0.165,0.298,-0.416,-18.494,-100.098,5.493
0.059,0.248,-0.356,-13.367,-104.736,-0.671
0.023,0.142,-0.373,-8.301,-109.802,-5.676
-0.021,-0.003,-0.356,-9.827,-138.916,-2.136
-0.078,-0.023,-0.259,-8.362,-199.585,12.146
-0.188,0.084,0.016,-8.545,-225.708,18.616
-0.219,0.162,0.089,-7.202,-242.249,20.447
-0.259,0.188,0.329,3.540,-266.785,13.672
-0.316,0.066,0.553,13.733,-278.442,7.690
-0.373,-0.071,0.748,36.926,-290.344,6.226
-0.440,-0.061,1.167,31.189,-297.607,11.047
-0.459,0.073,1.414,13.855,-301.392,17.761
-0.464,0.331,1.695,15.320,-287.659,18.982
-0.420,0.369,1.732,15.686,-239.319,17.822
-0.347,0.300,1.732,9.888,-215.027,15.686
-0.346,0.303,1.762,6.042,-183.777,11.169
-0.348,0.371,1.849,14.282,-179.016,6.470
-0.336,0.390,1.878,26.062,-171.509,-4.395
-0.331,0.238,1.879,35.217,-160.767,-9.583
-0.339,0.141,1.823,48.035,-141.479,-10.315
-0.327,0.196,1.870,41.016,-136.108,-6.958
-0.316,0.214,1.856,33.264,-124.634,-5.249
-0.270,0.264,1.728,16.602,-94.238,-2.991
-0.248,0.350,1.744,3.845,-84.656,-1.404
-0.236,0.406,1.784,-1.465,-64.941,-5.005
-0.248,0.303,1.715,5.859,-52.246,-7.874
-0.252,0.251,1.652,17.639,-34.790,-7.812
-0.262,0.199,1.504,21.912,-28.992,-6.714
-0.270,0.184,1.432,22.766,-21.973,-3.174
-0.272,0.881,2.144,-111.145,-44.128,95.947
-0.267,1.008,2.372,-107.727,-17.578,83.191
-0.291,1.074,2.633,-107.544,5.920,72.449
-0.317,1.068,2.634,-98.022,66.284,47.241
-0.415,0.899,2.437,-85.205,93.140,32.715
-0.468,0.750,2.326,-60.303,122.131,10.559
-0.562,0.521,2.115,-50.598,130.066,3.784
-0.603,0.368,1.993,-46.753,140.747,-9.033
-0.628,0.078,1.819,-66.101,143.250,-10.986
-0.632,0.083,1.784,-150.696,173.096,1.404
-0.597,0.411,1.545,-188.354,200.073,6.653
-0.559,0.592,1.372,-213.867,236.450,-5.066
-0.488,0.743,1.068,-208.679,244.385,-20.752
-0.464,0.699,0.900,-190.002,240.845,-57.678
-0.417,0.510,0.683,-179.932,228.394,-73.425
-0.406,0.423,0.610,-155.762,204.224,-93.994
-0.377,0.330,0.372,-141.724,197.510,-101.379
-0.351,0.270,0.214,-129.456,184.326,-118.896
-0.288,0.163,0.120,-130.249,170.410,-124.695
-0.276,0.134,0.104,-108.398,147.156,-127.502
-0.271,0.016,-0.125,-90.332,138.672,-124.634
-0.236,-0.015,-0.367,-70.374,113.281,-107.727
-0.205,-0.005,-0.370,-63.782,75.439,-89.416
-0.166,-0.013,-0.286,-56.396,60.364,-82.581
-0.142,0.012,-0.326,-39.246,38.513,-66.833
-0.076,0.257,-0.321,-39.368,24.048,-58.228
-0.055,0.373,-0.216,-36.804,2.258,-52.551
-0.050,0.359,-0.183,-23.315,-0.183,-54.749
-0.046,0.317,-0.280,-0.244,-13.123,-54.016
-0.026,0.320,-0.385,1.526,-26.978,-50.598
-0.013,0.318,-0.396,6.165,-52.063,-46.082
0.010,0.277,-0.462,12.146,-62.378,-44.617
0.010,0.257,-0.496,20.325,-85.266,-41.504
-0.010,0.196,-0.437,22.095,-99.304,-39.917
-0.029,0.162,-0.382,25.146,-121.643,-35.400
-0.073,0.115,-0.331,24.292,-131.653,-32.166
-0.100,0.095,-0.203,20.325,-162.292,-23.499
-0.125,0.106,0.092,25.757,-174.988,-18.250
-0.123,0.116,0.172,40.771,-194.092,-10.803
-0.125,0.133,0.379,40.710,-203.125,-8.972
-0.135,0.133,0.515,39.124,-213.135,-5.127
-0.147,0.199,0.849,41.931,-216.797,-2.014
-0.132,0.266,1.025,55.359,-222.961,1.038
-0.100,0.341,1.339,60.730,-223.206,0.122
-0.083,0.411,1.469,60.974,-212.952,-0.366
-0.033,0.491,1.784,59.875,-202.881,-3.845
-0.011,0.439,1.894,60.364,-171.753,-13.306
0.020,0.421,1.797,57.007,-155.518,-12.756
0.044,0.485,1.781,48.584,-145.508,-10.620
0.095,0.529,1.832,55.176,-143.860,-13.855
0.102,0.498,1.809,62.866,-130.249,-20.020
0.089,0.481,1.807,58.289,-120.178,-20.264
0.085,0.514,1.843,50.903,-99.304,-19.165
0.086,0.578,1.867,52.002,-88.684,-20.325
0.080,0.545,1.837,55.420,-77.881,-22.949
0.057,0.464,1.810,65.979,-63.721,-24.841
0.043,0.436,1.809,72.754,-60.791,-23.376
0.029,0.424,1.810,78.369,-55.481,-17.883
0.008,0.526,1.913,71.472,-49.377,-15.137
-0.004,0.588,2.002,54.871,-19.043,-16.846
-0.015,0.633,2.030,50.659,1.526,-19.958
-0.013,0.663,2.050,47.485,31.311,-25.391
-0.037,0.677,2.115,55.115,42.236,-29.358
-0.053,0.643,2.095,73.486,62.805,-36.133
-0.100,0.573,2.061,75.195,72.083,-38.086
-0.124,0.539,2.039,64.697,97.900,-43.030
-0.171,0.453,1.939,50.964,117.798,-47.119
-0.213,0.373,1.876,13.794,153.198,-58.838
-0.229,0.189,1.571,2.991,162.903,-61.462
-0.192,0.164,1.377,-7.019,169.922,-60.120
-0.146,0.164,1.139,-33.569,185.425,-59.448
-0.146,0.177,1.063,-41.382,191.833,-61.829
-0.146,0.123,0.787,-28.931,195.251,-70.679
-0.118,0.024,0.655,-20.081,187.805,-75.439
-0.081,-0.059,0.603,-31.616,171.814,-75.317
-0.045,-0.107,0.534,-40.344,174.438,-71.533
-0.035,-0.085,0.431,-51.453,179.504,-63.904
0.020,-0.025,0.271,-55.420,173.157,-62.622
0.064,-0.047,0.224,-49.316,152.649,-63.293
0.146,-0.093,0.081,-47.363,144.348,-59.753
0.180,-0.067,-0.003,-58.228,128.113,-45.959
0.212,0.052,-0.099,-65.002,117.371,-40.283
0.222,0.088,-0.134,-56.335,86.731,-38.147
0.247,0.073,-0.207,-44.006,67.383,-38.513
0.255,0.051,-0.203,-25.391,34.363,-33.813
0.237,0.057,-0.197,-21.667,23.804,-29.968
0.218,0.067,-0.219,-15.686,5.493,-26.794
0.171,0.007,-0.293,-9.277,-6.714,-26.306
0.139,-0.040,-0.310,0.854,-33.997,-19.958
0.086,-0.105,-0.346,1.709,-46.143,-14.832
0.069,-0.116,-0.377,-7.568,-68.542,-3.296
0.047,-0.089,-0.436,-14.954,-80.994,2.686
0.036,-0.045,-0.432,-26.184,-111.145,12.024
-0.016,0.115,-0.305,-28.870,-124.939,14.648
-0.054,0.198,-0.195,-21.057,-146.057,12.390
-0.106,0.208,0.028,-8.667,-157.654,6.958
-0.138,0.116,0.123,12.512,-181.458,-0.977
-0.204,-0.046,0.377,17.334,-194.092,1.099
-0.222,-0.058,0.548,18.494,-206.665,6.287
-0.223,0.119,0.958,7.568,-221.374,21.484
-0.214,0.197,1.157,8.179,-222.778,26.367
-0.207,0.207,1.470,25.208,-216.064,26.184
-0.221,0.218,1.606,29.846,-205.383,26.123
-0.228,0.317,1.676,42.236,-178.833,28.442
-0.201,0.365,1.589,46.509,-169.189,26.489
-0.168,0.336,1.604,34.973,-168.823,14.221
-0.172,0.288,1.682,31.250,-169.312,8.545
-0.181,0.262,1.738,35.889,-158.569,3.479
-0.223,0.195,1.749,42.297,-149.597,2.502
-0.198,0.088,1.625,61.890,-133.118,4.395
-0.171,0.020,1.437,70.679,-125.488,6.531
-0.168,0.060,1.333,40.039,-122.925,13.611
-0.177,0.166,1.594,3.845,-127.136,16.479
-0.177,0.343,1.931,-27.283,-106.750,13.977
-0.175,0.388,1.953,-20.386,-87.158,8.972
-0.179,0.396,1.932,3.967,-54.260,-4.456
-0.180,0.301,1.758,9.766,-41.565,-10.620
-0.179,0.185,1.692,9.216,-26.794,-16.113
-0.185,-0.003,1.519,8.118,-19.836,-12.817
-0.114,0.629,1.936,-6.287,-39.368,-7.629
-0.127,0.585,2.141,-14.893,-4.211,-23.865
-0.201,0.514,2.456,-15.991,16.052,-28.931
-0.255,0.525,2.617,-25.452,50.964,-34.180
-0.422,0.633,2.815,-32.104,73.059,-37.903
-0.526,0.607,2.790,-37.170,127.136,-54.260
-0.712,0.312,2.614,-36.865,150.635,-60.364
-0.775,0.180,2.465,-25.452,185.059,-54.321
-0.825,0.137,2.093,-16.541,195.496,-48.340
-0.821,0.145,1.910,-19.897,212.280,-46.204
-0.790,0.110,1.509,-36.438,221.374,-46.936
-0.763,0.130,1.344,-74.036,233.520,-49.561
-0.691,0.148,1.079,-77.820,234.680,-54.932
-0.663,0.073,0.947,-59.326,223.450,-66.833
-0.586,-0.106,0.715,-51.453,214.111,-67.871
-0.545,-0.180,0.645,-47.729,204.041,-64.453
-0.455,-0.237,0.416,-46.875,209.961,-62.012
-0.411,-0.239,0.302,-58.289,200.867,-47.546
-0.323,-0.219,0.202,-63.782,189.941,-38.696
-0.261,-0.187,0.114,-64.148,172.302,-25.757
-0.110,-0.023,-0.083,-65.918,158.875,-23.499
-0.038,0.062,-0.142,-82.703,127.808,-24.414
0.058,0.158,-0.142,-86.548,116.272,-27.100
0.077,0.116,-0.139,-70.496,99.426,-37.720
0.079,-0.035,-0.127,-61.157,88.928,-38.818
0.104,-0.052,-0.112,-43.701,61.157,-28.992
0.182,-0.084,-0.104,-30.762,48.035,-23.743
0.205,-0.123,-0.101,-10.193,27.954,-12.512
0.250,-0.032,-0.118,-9.583,21.912,-5.981
0.281,0.060,-0.102,-27.466,4.272,2.869
0.347,0.214,0.048,-35.950,-6.226,4.822
0.364,0.237,0.086,-37.231,-15.259,4.150
0.353,0.318,0.122,-33.325,-19.531,3.845
0.342,0.391,0.125,-15.869,-32.898,1.404
0.358,0.535,0.088,-11.047,-39.795,-2.136
0.369,0.512,0.104,-5.859,-49.927,-14.343
0.350,0.370,0.064,-1.892,-53.589,-17.151
0.329,0.369,0.054,-0.549,-60.181,-16.113
0.274,0.584,0.163,-12.634,-75.684,-12.451
0.247,0.674,0.217,-18.982,-78.186,-15.747
0.181,0.659,0.221,-18.433,-78.064,-28.809
0.151,0.642,0.202,-18.616,-80.688,-31.738
0.078,0.609,0.199,-15.503,-96.619,-33.569
0.047,0.604,0.213,-9.460,-108.582,-34.424
-0.014,0.533,0.287,2.441,-132.507,-39.673
-0.035,0.416,0.377,3.235,-142.639,-42.847
-0.057,0.261,0.465,-0.916,-155.457,-42.725
-0.078,0.142,0.639,-1.953,-160.767,-37.903
-0.077,0.151,0.718,11.780,-175.659,-31.250
-0.046,0.141,0.993,15.259,-186.645,-31.738
-0.040,0.076,1.535,10.925,-197.083,-34.912
-0.021,0.048,1.762,12.085,-190.247,-34.363
0.078,0.042,1.936,20.569,-161.011,-25.818
0.122,0.050,1.897,24.353,-142.883,-20.203
0.177,0.092,1.771,28.137,-119.812,-11.597
0.191,0.124,1.744,26.306,-114.563,-9.949
0.220,0.219,1.864,15.198,-105.347,-10.803
0.227,0.220,1.892,11.658,-93.384,-13.916
0.213,0.168,1.807,15.320,-64.575,-18.005
0.204,0.176,1.772,19.958,-56.335,-16.235
0.201,0.215,1.767,30.762,-46.631,-11.230
0.202,0.291,1.714,35.950,-39.490,-11.230
0.205,0.332,1.696,31.067,-26.733,-13.855
0.187,0.412,1.782,25.818,-19.714,-15.442
0.170,0.407,1.787,28.687,0.244,-18.921
0.150,0.384,1.728,30.823,6.348,-19.409
0.142,0.393,1.710,22.217,18.738,-20.569
0.120,0.431,1.718,16.663,28.503,-22.400
0.121,0.488,1.740,8.972,49.622,-27.161
0.131,0.567,1.807,5.615,60.730,-31.982
0.125,0.530,1.808,3.601,73.364,-38.330
0.117,0.502,1.779,1.526,99.731,-46.936
0.109,0.507,1.763,4.150,108.093,-49.744
0.096,0.484,1.735,17.456,124.756,-55.725
0.084,0.478,1.575,18.982,133.667,-59.143
0.074,0.423,1.505,9.705,153.870,-68.359
0.044,0.170,1.332,3.357,166.321,-69.336
0.046,0.050,1.194,-3.479,178.894,-57.861
0.151,0.099,0.866,-6.836,172.363,-49.072
0.194,0.202,0.862,-17.151,144.592,-48.279
0.172,0.137,1.011,-16.785,138.306,-57.007
0.150,0.007,0.981,-10.132,149.597,-66.833
0.156,-0.096,0.727,-13.611,154.236,-61.890
0.145,-0.091,0.643,-18.799,148.743,-52.002
0.146,-0.089,0.357,-17.700,135.864,-33.081
0.165,-0.076,0.229,-22.034,130.310,-26.794
0.188,-0.078,0.122,-33.264,113.831,-19.470
0.192,-0.070,0.091,-33.386,103.455,-15.991
0.228,0.018,0.030,-36.621,82.336,-8.118
0.249,0.016,0.020,-37.292,72.388,-7.019
0.270,0.001,0.019,-33.630,49.744,-3.845
0.308,0.036,0.029,-36.316,39.795,-0.305
0.325,0.072,0.050,-44.250,24.902,5.920
0.371,0.163,0.050,-42.786,17.822,6.958
0.400,0.205,0.043,-33.081,-1.526,3.296
0.419,0.252,0.100,-30.090,-11.292,0.061
0.413,0.244,0.138,-25.452,-20.569,-7.141
0.400,0.218,0.080,-23.682,-22.400,-9.277
0.399,0.217,0.071,-18.066,-35.156,-10.132
0.393,0.164,0.043,-9.583,-40.771,-10.620
0.386,0.147,0.007,-1.770,-44.861,-11.169
0.364,0.131,-0.034,4.700,-56.213,-12.024
0.339,0.113,-0.028,4.028,-64.697,-12.024
0.276,0.157,0.017,-5.615,-84.106,-9.583
0.234,0.194,0.078,-15.015,-98.755,-8.789
0.156,0.240,0.042,-12.878,-101.624,-9.033
0.151,0.248,-0.036,-9.460,-106.079,-10.010
0.087,0.152,-0.084,-5.615,-126.770,-14.099
0.034,0.094,-0.096,-2.625,-140.259,-13.489
-0.133,-0.062,-0.027,0.549,-174.744,-4.822
-0.218,-0.059,0.156,-0.977,-195.435,5.249
-0.275,0.078,0.605,13.428,-223.755,19.653
-0.308,0.022,0.668,22.949,-219.849,16.052
-0.355,-0.086,0.672,3.174,-206.421,19.409
-0.464,-0.105,0.773,-19.043,-209.045,32.959
-0.512,0.017,0.813,-26.428,-227.234,62.927
-0.539,0.354,1.177,-8.484,-246.521,68.176
-0.554,0.419,1.555,45.166,-274.536,48.767
-0.557,0.362,1.932,61.584,-262.939,31.372
-0.476,0.189,1.940,33.691,-212.219,2.991
-0.428,0.146,1.947,-10.742,-169.800,-3.479
-0.415,0.162,1.981,-19.165,-156.128,-0.793
-0.443,0.190,2.088,-11.353,-138.611,7.568
-0.421,0.247,2.281,1.343,-125.183,9.583
-0.363,0.255,2.257,20.447,-84.717,11.536
-0.249,0.280,1.985,21.851,-66.528,13.123
-0.235,0.307,1.839,12.390,-43.701,15.320
-0.288,0.356,1.726,13.489,-36.804,14.465
-0.321,0.284,1.670,29.480,-22.888,7.629
-0.318,0.202,1.598,34.241,-15.869,4.578
-0.300,0.165,1.452,26.917,-1.831,8.850
-0.311,0.197,1.340,21.240,6.775,11.780
-0.333,0.215,1.110,7.446,19.470,10.742
-0.327,0.245,1.107,-2.869,19.653,9.338
-0.300,0.262,1.180,-11.475,18.555,4.456
-0.296,0.209,1.146,-3.662,25.330,2.197
-0.289,0.201,1.032,-3.418,25.452,5.249
-0.285,0.252,1.003,-7.385,24.475,8.301
-0.293,0.212,0.924,-6.714,28.442,7.202
-0.290,0.170,0.842,-7.141,29.358,8.545
-0.267,0.234,0.854,-13.306,21.545,10.437
-0.272,0.262,0.896,-17.517,16.296,10.437
-0.293,0.178,0.850,-10.132,19.226,6.897
-0.290,0.145,0.829,-4.944,16.418,6.653
-0.282,0.152,0.857,-11.902,6.470,8.606
-0.295,0.162,0.916,-17.029,9.277,8.301
-0.299,0.142,0.883,-11.353,14.648,7.996
-0.298,0.144,0.833,-7.263,10.803,9.216
-0.285,0.189,0.844,-10.254,3.235,9.766
-0.266,0.248,0.884,-11.658,2.686,7.324
-0.257,0.246,0.873,-9.094,0.854,2.319
-0.243,0.226,0.858,-7.080,-2.014,0.610
-0.267,0.156,0.838,-1.892,-3.723,-1.953
-0.268,0.145,0.839,1.038,-6.042,-1.648
-0.278,0.146,0.866,2.625,-13.489,-0.244
-0.290,0.123,0.884,-0.610,-13.550,0.854
-0.302,0.092,0.939,-2.258,-13.062,2.319
-0.295,0.122,0.962,-6.836,-11.719,5.981
-0.291,0.190,0.998,-6.042,-9.094,6.653
-0.295,0.202,1.021,6.042,-3.418,5.737
-0.304,0.215,0.996,12.329,-1.038,5.127
-0.301,0.228,0.963,13.428,0.793,3.479
-0.287,0.247,0.987,11.536,1.160,2.380
-0.281,0.249,0.989,22.034,3.662,-0.549
-0.277,0.226,0.939,29.785,4.517,-2.991
-0.274,0.187,0.913,33.752,5.249,-5.676
-0.262,0.127,0.888,27.832,4.761,-4.333
-0.259,0.120,0.871,14.221,1.404,0.427
-0.256,0.136,0.889,9.094,-3.174,2.441
-0.255,0.168,0.950,1.648,-9.888,3.479
-0.266,0.188,1.003,0.854,-5.737,1.282
-0.272,0.139,0.975,5.981,3.723,-2.441
-0.284,0.058,0.947,8.362,2.197,-1.099
-0.286,0.053,0.963,7.507,-4.272,5.493
-0.283,0.046,0.975,4.883,-3.662,8.545
-0.274,0.050,0.955,2.380,-1.709,10.803
-0.270,0.157,0.944,-6.592,-0.305,13.184
-0.275,0.214,0.957,-12.695,1.831,12.024
-0.281,0.224,0.960,-10.986,8.118,5.859
-0.283,0.165,0.900,-4.822,7.690,4.028
-0.277,0.158,0.886,1.953,-0.305,5.310
-0.274,0.183,0.914,2.502,-2.441,5.859
-0.276,0.187,0.913,-0.244,-2.625,4.761
-0.275,0.200,0.947,-2.930,-2.686,3.784
-0.280,0.194,0.947,1.953,0.061,1.038
-0.292,0.151,0.915,5.676,-0.122,0.366
-0.293,0.142,0.909,1.648,-5.737,1.892
-0.291,0.183,0.959,-3.845,-6.714,2.258
-0.291,0.190,0.977,-5.493,-4.761,1.099
-0.293,0.152,0.965,0.793,-0.366,-2.258
-0.293,0.140,0.965,2.747,0.000,-2.502
-0.297,0.129,0.970,1.221,1.160,-1.526
-0.297,0.117,0.964,-0.854,1.343,-0.488
-0.290,0.124,0.953,-2.747,-0.305,1.831
-0.279,0.166,0.945,-3.174,-1.282,2.441
-0.278,0.168,0.950,-3.601,-0.610,1.282
-0.282,0.151,0.952,-2.502,0.366,0.977
-0.281,0.158,0.943,-0.061,-0.366,1.648
-0.284,0.178,0.952,-0.122,-1.160,1.404
-0.288,0.180,0.947,-0.183,0.244,-0.122
-0.297,0.182,0.926,-2.075,1.892,-1.038
-0.300,0.163,0.914,-3.967,4.761,-2.136
-0.303,0.126,0.884,-2.930,3.601,-1.465
-0.297,0.127,0.902,-2.747,0.183,0.000
-0.293,0.138,0.929,-3.357,-2.869,3.052
-0.293,0.146,0.926,-2.136,-2.258,4.028
-0.291,0.191,0.927,-2.319,-4.944,5.188
-0.285,0.221,0.966,-8.240,-6.714,4.700
-0.285,0.221,0.994,-13.794,1.282,0.183
-0.290,0.163,0.938,-8.423,5.737,-1.465
-0.291,0.144,0.914,2.991,1.221,-0.366
-0.297,0.144,0.900,2.869,-3.052,0.977
-0.296,0.161,0.918,-5.859,-4.700,1.526
-0.297,0.154,0.953,-5.737,-1.892,0.793
-0.297,0.138,0.942,0.916,1.221,0.671
-0.290,0.136,0.912,1.587,-0.061,1.465
-0.291,0.140,0.914,-1.465,-1.465,2.930
-0.299,0.134,0.914,-2.502,-0.061,3.357
-0.298,0.142,0.906,-3.845,-0.122,3.906
-0.294,0.179,0.920,-4.883,-1.709,3.601
-0.295,0.178,0.935,-4.578,-2.869,1.770
-0.295,0.162,0.945,-3.784,-2.075,1.160
-0.296,0.160,0.939,-3.235,-0.854,0.854
-0.296,0.171,0.920,0.061,-0.305,0.610
-0.298,0.179,0.927,0.000,-2.197,-0.427
-0.302,0.155,0.928,-0.916,-1.038,-0.549
-0.301,0.148,0.908,0.427,-0.366,0.977
-0.298,0.180,0.907,0.916,-2.686,1.526
-0.301,0.184,0.936,-0.305,-2.441,0.549
-0.301,0.163,0.935,0.916,0.305,0.244
-0.299,0.162,0.929,1.465,-0.549,0.854
-0.294,0.175,0.952,-0.183,-1.892,1.282
-0.294,0.178,0.953,-0.732,0.183,1.526
-0.296,0.180,0.944,-0.671,0.671,1.404
-0.294,0.187,0.944,-2.136,0.183,1.221
-0.292,0.188,0.930,-1.160,0.366,1.038
-0.293,0.185,0.911,1.404,-1.221,0.549
-0.294,0.193,0.944,-0.854,-2.258,0.183
-0.331,0.318,2.385,-62.378,16.846,6.653
-0.373,0.324,2.449,-74.463,73.364,-1.953
-0.476,0.222,2.391,-73.792,96.008,-5.371
-0.522,0.214,2.352,-63.416,122.437,-7.935
-0.573,0.279,2.197,-55.481,130.493,-10.681
-0.593,0.270,2.129,-57.617,149.292,-21.851
-0.651,0.149,1.990,-66.040,164.551,-26.917
-0.665,0.125,1.865,-70.984,191.284,-30.823
-0.655,0.115,1.609,-66.467,197.021,-32.166
-0.632,0.020,1.305,-59.082,201.843,-35.095
-0.610,-0.007,1.135,-61.768,202.332,-34.790
-0.551,-0.014,0.904,-79.407,197.266,-34.851
-0.521,-0.027,0.792,-90.210,194.702,-37.476
-0.429,0.006,0.585,-87.952,191.589,-38.147
-0.390,0.078,0.563,-69.824,177.185,-43.518
-0.356,0.097,0.456,-59.326,171.143,-50.842
-0.329,0.024,0.394,-64.392,161.194,-58.960
-0.234,0.035,0.447,-77.637,161.438,-57.678
-0.194,0.090,0.414,-90.576,163.940,-54.382
-0.091,0.159,0.285,-80.505,156.433,-55.908
-0.050,0.141,0.221,-49.927,135.071,-63.049
0.044,0.103,0.198,-44.128,123.413,-64.026
0.087,0.049,0.225,-38.330,106.750,-61.096
0.148,-0.016,0.142,-31.433,101.685,-55.542
0.199,0.052,0.060,-27.649,80.505,-41.870
0.320,0.157,0.107,-31.128,66.101,-39.001
0.350,0.122,0.113,-27.832,53.162,-36.011
0.371,0.110,0.050,-26.672,48.462,-30.762
0.373,0.165,0.058,-25.146,32.959,-21.973
0.367,0.193,0.101,-19.836,25.757,-21.423
0.360,0.178,0.100,-14.587,16.785,-19.897
0.344,0.205,0.055,-17.029,16.785,-18.127
0.332,0.242,0.006,-31.616,6.714,-13.672
0.315,0.302,-0.006,-39.551,-2.441,-12.146
0.309,0.317,-0.051,-39.063,-16.907,-9.399
0.306,0.375,-0.112,-33.691,-29.297,-8.484
0.303,0.401,-0.073,-21.790,-56.152,-11.536
0.282,0.326,0.051,-17.273,-64.087,-14.465
0.269,0.274,0.096,-9.399,-74.707,-15.747
0.240,0.260,0.224,-6.226,-83.374,-14.404
0.220,0.275,0.287,-2.197,-95.520,-10.864
0.217,0.360,0.334,-3.784,-98.389,-10.254
0.242,0.389,0.340,-8.972,-105.835,-15.381
0.244,0.369,0.444,-11.963,-110.352,-18.005
0.211,0.366,0.539,-9.399,-115.906,-20.996
0.163,0.326,0.701,-1.953,-117.004,-23.132
0.174,0.305,0.737,13.123,-122.253,-25.452
0.199,0.295,0.876,16.052,-126.770,-25.330
0.203,0.288,0.948,23.865,-127.563,-25.879
0.179,0.254,1.008,27.283,-125.671,-27.161
0.161,0.245,1.076,24.048,-127.441,-28.259
0.172,0.197,1.194,23.621,-126.648,-28.564
0.187,0.149,1.197,23.437,-125.183,-25.208
0.191,0.190,1.260,19.958,-125.793,-21.423
0.176,0.237,1.309,18.311,-118.103,-22.400
0.152,0.196,1.402,19.897,-112.061,-25.269
0.164,0.166,1.459,20.203,-98.755,-25.085
0.186,0.196,1.495,20.142,-90.332,-22.644
0.189,0.225,1.464,20.996,-75.439,-20.996
0.186,0.197,1.400,19.775,-71.167,-21.790
0.184,0.182,1.423,15.564,-65.552,-20.264
0.183,0.189,1.430,16.846,-60.120,-18.860
0.182,0.177,1.406,21.240,-49.377,-16.907
0.173,0.155,1.302,21.057,-44.556,-15.076
0.172,0.186,1.243,11.963,-39.551,-11.353
0.173,0.220,1.255,9.521,-38.879,-11.414
0.177,0.211,1.230,10.925,-32.471,-11.414
0.178,0.224,1.168,8.118,-29.175,-10.498
0.169,0.246,1.148,4.456,-25.024,-9.888
0.145,0.245,1.125,7.324,-25.391,-10.437
0.135,0.229,1.132,14.832,-31.006,-9.460
0.122,0.241,1.208,15.869,-33.325,-7.874
0.119,0.247,1.250,14.954,-32.898,-6.836
0.125,0.294,1.370,4.395,-26.306,-6.409
0.133,0.336,1.440,-2.869,-21.545,-6.775
0.138,0.354,1.484,-7.141,-7.507,-9.583
0.151,0.372,1.558,-3.906,-3.540,-9.827
0.160,0.400,1.650,-1.526,2.380,-10.498
0.168,0.393,1.850,-1.587,11.108,-12.207
0.175,0.408,1.908,-6.409,33.813,-13.733
0.188,0.578,2.115,-13.428,43.091,-14.587
0.173,0.614,2.185,-23.376,70.740,-23.682
0.131,0.553,2.022,-27.466,90.393,-29.724
0.126,0.496,1.853,-24.170,117.310,-37.781
0.135,0.386,1.572,-21.606,120.056,-38.818
0.136,0.380,1.460,-27.344,122.559,-38.208
0.130,0.403,1.270,-33.630,126.221,-39.795
0.125,0.377,1.202,-37.842,131.104,-42.908
0.114,0.262,1.025,-33.203,138.672,-47.974
0.106,0.202,0.954,-30.212,137.451,-47.363
0.098,0.153,0.917,-30.884,132.874,-40.588
0.109,0.090,0.835,-31.372,133.179,-35.339
0.141,0.103,0.802,-40.833,134.888,-23.621
0.200,0.206,0.826,-50.171,139.771,-20.752
0.200,0.196,0.857,-49.500,162.292,-24.109
0.152,0.081,0.416,-35.278,174.499,-23.499
0.184,0.101,0.116,-38.452,146.057,-14.771
0.294,0.199,0.321,-46.631,108.459,-13.733
0.307,0.202,0.386,-27.527,72.205,-18.188
0.321,0.181,0.313,-19.775,66.772,-19.470
0.322,0.173,0.304,-19.714,61.829,-19.714
0.309,0.173,0.193,-20.142,61.707,-20.081
0.300,0.159,0.147,-20.325,58.105,-21.057
0.293,0.114,0.066,-19.348,46.204,-22.583
0.295,0.092,0.028,-17.517,39.001,-22.583
0.267,0.011,0.013,-12.573,22.522,-23.010
0.254,-0.024,0.020,-10.620,15.808,-21.484
0.255,-0.008,0.045,-10.559,0.305,-11.414
0.280,0.081,0.103,-11.108,-6.775,-7.263
0.295,0.104,0.074,-11.047,-14.221,-5.981
0.341,0.157,0.044,-11.719,-19.409,-6.592
0.358,0.168,0.083,-7.935,-28.503,-7.812
0.379,0.185,0.108,-3.418,-31.555,-8.301
0.386,0.182,0.117,0.732,-42.847,-10.925
0.389,0.143,0.196,0.488,-51.147,-10.986
0.387,0.169,0.244,5.371,-66.772,-5.859
0.370,0.197,0.270,9.827,-74.890,-3.235
0.310,0.256,0.344,17.944,-92.346,-2.075
0.289,0.262,0.422,17.212,-103.699,-5.737
-0.235,0.312,2.189,11.475,-13.245,20.020
-0.301,0.289,2.354,-32.288,17.334,22.705
-0.435,0.442,2.663,-56.580,41.931,25.757
-0.486,0.583,2.703,-71.289,105.957,21.362
-0.539,0.661,2.350,-55.908,136.169,11.597
-0.552,0.537,2.121,-20.691,163.147,-8.362
-0.605,0.217,1.843,-13.977,166.992,-12.207
-0.617,0.145,1.743,-25.513,178.772,-7.935
-0.590,0.172,1.533,-38.391,185.303,-5.066
-0.568,0.171,1.420,-69.092,198.181,-5.005
-0.545,0.113,1.211,-81.299,205.749,-6.470
-0.504,0.067,1.044,-85.388,213.928,-6.104
-0.373,0.037,0.804,-89.661,209.229,-4.761
-0.338,0.055,0.762,-88.013,201.782,-15.015
-0.283,-0.035,0.613,-80.872,200.012,-22.522
-0.243,-0.008,0.565,-91.858,180.908,-16.846
-0.156,0.130,0.470,-93.872,176.453,-17.151
-0.116,0.144,0.321,-90.210,175.415,-25.330
-0.100,0.110,0.212,-90.698,159.119,-46.143
-0.076,0.011,0.172,-92.712,151.184,-50.293
-0.048,-0.007,0.102,-81.543,140.747,-47.363
0.031,0.030,-0.073,-73.608,127.808,-42.969
0.087,0.144,-0.065,-70.129,90.088,-32.166
0.106,0.237,0.005,-76.355,74.707,-27.466
0.130,0.296,0.128,-82.031,62.134,-32.837
0.135,0.249,0.105,-73.669,61.096,-40.283
0.143,0.192,0.036,-49.683,51.208,-43.335
0.167,0.138,-0.047,-41.565,38.696,-37.903
0.173,0.166,-0.012,-34.912,9.705,-22.034
0.180,0.317,0.102,-32.898,-0.122,-15.564
0.178,0.371,0.093,-26.794,-4.761,-15.320
0.182,0.350,-0.014,-21.912,-6.775,-19.409
0.185,0.321,-0.091,-13.306,-23.499,-21.729
0.201,0.361,-0.080,-12.817,-38.452,-19.714
0.186,0.358,0.019,-15.015,-55.786,-19.531
0.133,0.262,0.092,-13.000,-53.894,-20.752
0.129,0.205,0.067,-5.310,-56.519,-19.348
0.144,0.204,0.046,-2.869,-66.162,-17.395
0.144,0.230,0.094,-1.770,-93.384,-14.343
0.126,0.299,0.268,-1.587,-104.675,-14.954
0.112,0.292,0.348,7.446,-116.699,-21.057
0.104,0.272,0.522,12.817,-120.789,-23.315
0.111,0.289,0.620,17.761,-125.732,-29.297
0.128,0.259,0.704,17.456,-125.061,-33.508
0.145,0.236,0.733,11.230,-129.089,-34.180
0.144,0.229,0.811,11.292,-133.057,-33.081
0.121,0.214,0.885,21.362,-144.226,-32.532
0.109,0.252,1.160,31.006,-151.123,-30.090
0.135,0.310,1.248,47.852,-153.015,-29.602
0.175,0.326,1.330,46.936,-149.841,-33.630
0.184,0.291,1.418,33.936,-144.836,-37.537
0.204,0.289,1.589,31.982,-139.343,-35.706
0.226,0.316,1.634,48.584,-128.662,-34.424
0.244,0.296,1.617,57.861,-124.512,-35.645
0.247,0.263,1.584,59.692,-120.666,-33.142
0.257,0.298,1.488,49.377,-119.751,-29.175
0.255,0.342,1.492,31.494,-117.615,-25.940
0.245,0.382,1.539,8.606,-106.079,-24.719
0.156,0.376,1.587,16.541,-99.915,-27.466
0.098,0.307,1.666,38.696,-102.661,-31.250
0.012,0.229,2.006,36.560,-102.722,-28.809
-0.008,0.264,2.215,5.615,-72.144,-20.264
-0.005,0.288,2.439,-9.338,-43.274,-18.311
0.008,0.321,2.432,-29.114,5.676,-10.803
0.031,0.528,2.341,-29.480,19.104,-7.385
0.018,0.567,2.334,-4.944,39.795,-15.137
-0.021,0.508,2.279,10.437,55.237,-21.179
-0.033,0.539,2.216,8.057,104.492,-31.555
-0.069,0.590,2.032,-5.127,132.263,-40.100
-0.100,0.504,1.900,-25.635,179.871,-58.899
-0.149,0.358,1.527,-32.227,199.097,-62.256
-0.161,0.352,1.294,-26.917,216.980,-65.308
-0.181,0.121,0.872,-21.057,215.332,-67.139
-0.169,0.014,0.715,-18.921,201.965,-52.917
-0.093,0.014,0.596,-16.296,192.139,-40.833
-0.057,0.051,0.670,-10.071,182.312,-23.010
-0.074,0.017,0.612,-7.080,194.580,-16.724
-0.077,0.041,0.314,-10.620,213.135,-9.888
-0.032,0.114,-0.040,-56.763,212.341,-6.287
0.166,0.202,0.068,-79.163,178.040,-12.756
0.226,0.143,0.300,-39.673,120.972,-24.353
0.311,0.081,0.283,-14.771,109.863,-22.888
0.346,0.113,0.256,-28.259,91.736,-16.418
0.411,0.238,0.255,-44.495,87.463,-14.893
0.426,0.303,0.236,-58.655,82.764,-20.203
0.432,0.296,0.127,-53.467,79.102,-25.757
0.438,0.258,0.052,-36.560,61.096,-30.884
0.431,0.203,-0.021,-26.978,46.082,-31.128
0.420,0.150,-0.045,-16.785,30.640,-31.555
0.413,0.170,-0.074,-10.315,6.042,-25.452
0.412,0.206,-0.097,-9.338,-3.662,-22.095
0.405,0.194,-0.151,-7.629,-17.456,-24.353
0.375,0.120,-0.276,-9.033,-25.696,-24.475
0.340,0.109,-0.307,-9.766,-49.133,-15.808
0.257,0.207,-0.252,-8.789,-63.110,-12.085
0.222,0.249,-0.168,-2.747,-83.374,-18.127
0.152,0.158,-0.140,-0.427,-85.022,-23.376
0.118,0.117,-0.158,-2.380,-94.727,-23.987
0.049,0.054,-0.086,-0.488,-107.605,-22.827
-0.004,-0.003,-0.002,9.277,-140.198,-21.851
-0.108,-0.072,0.221,12.878,-155.151,-20.203
-0.151,-0.131,0.425,17.334,-179.138,-14.954
-0.169,-0.170,0.536,14.893,-189.087,-9.583
-0.194,-0.137,0.751,12.512,-208.557,15.137
-0.195,-0.011,0.857,15.686,-219.788,29.358
-0.193,0.286,1.154,9.644,-230.286,35.278
-0.176,0.298,1.290,2.808,-223.267,26.001
-0.155,0.249,1.369,8.057,-201.782,10.803
-0.142,0.207,1.378,14.893,-196.411,9.277
-0.154,0.215,1.362,19.653,-195.007,8.972
-0.178,0.152,1.482,23.071,-196.289,9.766
-0.174,0.121,1.559,33.630,-191.040,18.433
-0.170,0.199,1.620,32.837,-182.556,22.461
-0.168,0.241,1.636,26.184,-164.001,21.667
-0.159,0.280,1.637,24.414,-152.954,18.372
-0.158,0.272,1.615,16.235,-128.845,13.062
-0.152,0.303,1.674,8.057,-119.446,13.306
-0.139,0.358,1.743,4.395,-98.999,13.428
-0.126,0.403,1.748,13.184,-84.595,9.705
-0.037,0.354,2.854,-22.156,-45.288,-2.747
-0.061,0.347,3.174,-47.180,39.490,1.892
-0.131,0.588,3.334,-48.035,82.764,4.456
-0.152,0.660,3.160,-49.927,147.217,-10.132
-0.209,0.547,2.684,-51.270,168.274,-21.057
-0.260,0.440,2.410,-37.659,198.853,-31.555
-0.352,0.282,1.840,-29.785,205.261,-29.968
-0.374,0.242,1.634,-33.020,199.951,-20.691
-0.384,0.214,1.419,-45.105,197.327,-15.869
-0.385,0.228,1.319,-83.679,208.008,-9.888
-0.369,0.210,1.078,-103.943,216.125,-10.498
-0.343,0.187,0.975,-124.756,220.642,-13.611
-0.279,0.116,0.753,-119.873,215.515,-15.381
-0.249,0.066,0.616,-99.060,188.477,-17.395
-0.186,0.025,0.507,-93.201,167.480,-17.334
-0.153,-0.003,0.547,-88.745,137.756,-22.766
-0.073,-0.072,0.538,-89.172,135.864,-24.719
-0.013,-0.019,0.451,-97.717,134.460,-17.639
0.091,0.108,0.304,-102.051,127.319,-16.235
0.122,0.121,0.283,-105.591,108.154,-18.494
0.160,0.126,0.349,-102.844,99.365,-16.785
0.167,0.150,0.410,-101.074,92.896,-15.015
0.176,0.154,0.443,-99.915,94.604,-16.907
0.180,0.144,0.371,-91.309,91.553,-15.991
0.177,0.177,0.194,-87.769,83.069,-13.000
0.171,0.225,0.172,-80.750,59.875,-9.583
0.161,0.281,0.103,-70.984,51.453,-11.841
0.159,0.255,0.020,-49.194,40.161,-15.320
0.162,0.255,-0.100,-43.884,32.532,-13.672
0.163,0.279,-0.132,-37.292,11.902,-13.000
0.151,0.309,-0.241,-31.860,2.075,-13.428
0.147,0.336,-0.303,-24.414,-8.362,-14.404
0.153,0.334,-0.348,-1.831,-34.851,-22.156
0.149,0.271,-0.333,17.090,-55.420,-28.015
0.134,0.165,-0.298,22.827,-62.134,-25.879
0.128,0.164,-0.288,24.841,-75.256,-22.034
0.123,0.221,-0.217,24.841,-83.069,-23.437
0.118,0.228,-0.179,26.794,-90.820,-27.283
0.091,0.214,-0.004,28.748,-107.056,-35.706
0.094,0.226,0.086,32.166,-115.356,-37.598
0.089,0.177,0.186,47.485,-130.005,-42.236
0.075,0.138,0.310,50.171,-139.954,-43.396
0.063,0.133,0.449,51.697,-150.757,-39.978
0.031,0.176,0.594,54.199,-149.292,-40.100
0.034,0.199,0.637,56.946,-148.010,-47.180
0.058,0.048,0.762,57.556,-148.254,-52.368
0.059,-0.073,0.804,50.842,-153.870,-48.523
0.061,0.010,1.047,38.574,-163.147,-39.063
0.084,0.174,1.241,33.203,-169.922,-30.518
0.159,0.285,1.415,46.326,-162.842,-35.889
0.187,0.217,1.400,66.650,-153.076,-44.312
0.221,0.213,1.521,60.730,-153.870,-41.748
0.251,0.264,1.644,50.293,-153.198,-38.330
0.282,0.281,1.754,38.940,-138.794,-35.095
0.322,0.263,1.876,39.185,-128.662,-33.508
0.333,0.305,1.921,49.011,-114.807,-30.701
0.365,0.410,2.062,55.908,-110.291,-31.799
0.385,0.406,2.119,59.082,-94.727,-35.461
0.408,0.360,2.203,52.307,-82.092,-34.851
0.416,0.371,2.200,48.462,-52.917,-32.776
0.420,0.394,2.289,51.392,-42.053,-34.119
0.400,0.346,2.377,51.514,-13.794,-38.879
0.346,0.246,2.445,40.894,4.883,-36.438
0.322,0.260,2.431,4.150,40.527,-25.879
0.290,0.322,2.313,-13.245,57.495,-21.545
0.276,0.369,2.217,-31.067,91.248,-17.029
0.243,0.453,1.937,-29.968,103.638,-17.334
0.224,0.490,1.865,-28.564,115.112,-23.132
0.164,0.486,1.760,-29.114,123.291,-28.687
0.129,0.408,1.622,-30.701,146.057,-39.978
0.074,0.296,1.340,-36.011,153.503,-42.969
0.054,0.272,1.267,-60.242,165.527,-48.828
0.003,0.247,1.274,-83.069,182.556,-54.016
-0.021,0.226,1.241,-116.821,239.807,-72.876
-0.032,0.055,0.897,-123.840,266.235,-85.815
-0.005,0.021,0.679,-113.525,267.944,-89.050
0.046,0.074,0.515,-103.027,246.277,-85.144
